ExperimentName,Subject,Session,Age,Clock.Information,Clock.StartTimeOfDay,Condition,Display.RefreshRate,Ethnicity,Group,RandomSeed,SessionDate,SessionTime,SessionTimeUtc,Sex,Block,AccumValue.Block.,popcount.Block.,Procedure.Block.,RunList,RunList.Cycle,RunList.Sample,Running.Block.,Trial,BalloonColor,BlockList,BlockList.Cycle,BlockList.Sample,popcount.Trial.,Procedure.Trial.,PumpDuration,Running.Trial.,TrialType,SubTrial,AccumValue.SubTrial.,burst,burstpoint,InflationCount.SubTrial.,Numpumps.SubTrial.,Outcome.OnsetTime,Procedure.SubTrial.,PumpBegin.ACC,PumpBegin.OffsetTime,PumpBegin.OnsetTime,PumpBegin.RESP,PumpBegin.RT,PumpBegin.RTTime,PumpCollect.ACC,PumpCollect.CRESP,PumpCollect.DurationError,PumpCollect.OffsetTime,PumpCollect.OnsetDelay,PumpCollect.OnsetTime,PumpCollect.RESP,PumpCollect.RT,PumpCollect.RTTime,PumpDur,PumpOnsetRT,PumpStop,Remtime.SubTrial.,Resp,Running.SubTrial.,Status.SubTrial.,TrialCount,TrialList,TrialList.Cycle,TrialList.Sample,Value.SubTrial.,LogLevel5,InflationCount.LogLevel5.,Numpumps.LogLevel5.,Procedure.LogLevel5.,Pump10RT,Pump11RT,Pump12RT,Pump13RT,Pump14RT,Pump15RT,Pump16RT,Pump17RT,Pump18RT,Pump19RT,Pump20RT,Pump21RT,Pump22RT,Pump23RT,Pump24RT,Pump25RT,Pump26RT,Pump27RT,Pump28RT,Pump29RT,Pump30RT,Pump31RT,Pump32RT,Pump33RT,Pump34RT,Pump35RT,Pump36RT,Pump37RT,Pump38RT,Pump39RT,Pump3RT,Pump40RT,Pump41RT,Pump42RT,Pump43RT,Pump44RT,Pump45RT,Pump4RT,Pump5RT,Pump6RT,Pump7RT,Pump8RT,Pump9RT,PumpAgain.ACC,PumpAgain.OffsetTime,PumpAgain.OnsetTime,PumpAgain.RESP,PumpAgain.RT,PumpAgain.RTTime,PumpIncrement,PumpIncrement.Cycle,PumpIncrement.Sample,Remtime.LogLevel5.,Running.LogLevel5.,Status.LogLevel5.,Value.LogLevel5.,X.,Pump52RT,Pump53RT,Pump48RT,Pump49RT,Pump50RT,Pump51RT,Pump46RT,Pump47RT,Pump54RT,Clock.SystemTimeDrift,Clock.SystemTimeDriftWarning,Pump56RT,Pump57RT,InflationCount,Numpumps,Remtime,Value,DataFile.Basename,ExperimentVersion,RuntimeVersion,RuntimeVersionExpected,SessionStartDateTimeUtc,StudioVersion,PumpCollect.OnsetToOnsetTime,Pump2RT,Pump66RT,Pump55RT,Pump61RT,Pump62RT
BART_PRSK,10152,1,18,<?xml version=1.0?>\n<Clock xmlns:dt=urn:schemas-microsoft-com:datatypes><Description dt:dt=string>E-Prime Primary Realtime Clock</Description><StartTime><Timestamp dt:dt=int>0</Timestamp><DateUtc dt:dt=string>2011-08-01T13:44:04Z</DateUtc></StartTime><FrequencyChanges><FrequencyChange><Frequency dt:dt=r8>2992640000</Frequency><Timestamp dt:dt=r8>13163907393325</Timestamp><Current dt:dt=r8>0</Current><DateUtc dt:dt=string>2011-08-01T13:44:04Z</DateUtc></FrequencyChange></FrequencyChanges></Clock>\n,8/1/2011 9:44,1,85.011,3,1,413280320,8/1/2011,9:44:04,1:44:04 PM,female,1,$6.06 ,9,RunProc,1,1,1,RunList,1,Yellow,1,1,1,0,ExpBlockProc,3191,BlockList,Exp,1,$0.46 ,15,54,17,17,111872,TrialProc,0,104539,103442,{SPACE},1097,104539,0,NA,0,106633,28,106533,{SPACE},30,106563,3191,1097,106633,5193,{SPACE},TrialList,inflating,1,1,1,1,$0.46 ,1,27,27,PumpIncrementProc,NA,NA,NA,NA,NA,NA,NA,NA,1223,777,401,305,448,174,126,153,153,1377,NA,NA,NA,NA,NA,NA,NA,NA,NA,NA,NA,NA,NA,NA,NA,NA,NA,NA,NA,NA,NA,NA,NA,NA,NA,0,111867,110490,{SPACE},1377,111867,1,1,1,56,PumpIncrement,inflating,$0.46 ,NA,NA,NA,NA,NA,NA,NA,NA,NA,NA,NA,NA,NA,NA,NA,NA,NA,NA,NA,NA,NA,NA,NA,NA,NA,NA,NA,NA,NA,NA
BART_PRSK,10152,1,18,<?xml version=1.0?>\n<Clock xmlns:dt=urn:schemas-microsoft-com:datatypes><Description dt:dt=string>E-Prime Primary Realtime Clock</Description><StartTime><Timestamp dt:dt=int>0</Timestamp><DateUtc dt:dt=string>2011-08-01T13:44:04Z</DateUtc></StartTime><FrequencyChanges><FrequencyChange><Frequency dt:dt=r8>2992640000</Frequency><Timestamp dt:dt=r8>13163907393325</Timestamp><Current dt:dt=r8>0</Current><DateUtc dt:dt=string>2011-08-01T13:44:04Z</DateUtc></FrequencyChange></FrequencyChanges></Clock>\n,8/1/2011 9:44,1,85.011,3,1,413280320,8/1/2011,9:44:04,1:44:04 PM,female,1,$6.06 ,9,RunProc,1,1,1,RunList,2,Yellow,1,1,2,0,ExpBlockProc,1369,BlockList,Exp,1,$0.65 ,10,39,2,2,125210,TrialProc,0,118115,116995,{SPACE},1120,118115,0,NA,0,118364,27,118264,{SPACE},99,118363,1369,1120,118364,6670,{SPACE},TrialList,timeout,2,1,2,2,$0.19 ,1,14,14,PumpIncrementProc,591,135,175,414,231,NA,NA,NA,NA,NA,NA,NA,NA,NA,NA,NA,NA,NA,NA,NA,NA,NA,NA,NA,NA,NA,NA,NA,NA,NA,208,NA,NA,NA,NA,NA,NA,369,1582,321,209,143,599,1,125207,123514,,0,0,1,2,2,1693,PumpIncrement,Timeout,$0.19 ,NA,NA,NA,NA,NA,NA,NA,NA,NA,NA,NA,NA,NA,NA,NA,NA,NA,NA,NA,NA,NA,NA,NA,NA,NA,NA,NA,NA,NA,NA
BART_PRSK,10152,1,18,<?xml version=1.0?>\n<Clock xmlns:dt=urn:schemas-microsoft-com:datatypes><Description dt:dt=string>E-Prime Primary Realtime Clock</Description><StartTime><Timestamp dt:dt=int>0</Timestamp><DateUtc dt:dt=string>2011-08-01T13:44:04Z</DateUtc></StartTime><FrequencyChanges><FrequencyChange><Frequency dt:dt=r8>2992640000</Frequency><Timestamp dt:dt=r8>13163907393325</Timestamp><Current dt:dt=r8>0</Current><DateUtc dt:dt=string>2011-08-01T13:44:04Z</DateUtc></FrequencyChange></FrequencyChanges></Clock>\n,8/1/2011 9:44,1,85.011,3,1,413280320,8/1/2011,9:44:04,1:44:04 PM,female,1,$6.06 ,9,RunProc,1,1,1,RunList,3,Yellow,1,1,3,1,ExpBlockProc,1369,BlockList,Exp,1,$0.65 ,6,27,27,27,135790,TrialProc,0,132427,131851,{SPACE},576,132427,1,NA,0,135787,29,135687,,0,0,NA,576,NA,4714,{SPACE},TrialList,popped,3,1,3,3,$0.00 ,NA,NA,NA,,NA,NA,NA,NA,NA,NA,NA,NA,NA,NA,NA,NA,NA,NA,NA,NA,NA,NA,NA,NA,NA,NA,NA,NA,NA,NA,NA,NA,NA,NA,NA,NA,NA,NA,NA,NA,NA,NA,NA,NA,NA,NA,NA,NA,NA,NA,,NA,NA,NA,NA,NA,NA,,,,NA,NA,NA,NA,NA,NA,NA,NA,NA,NA,NA,NA,NA,NA,NA,NA,NA,NA,NA,NA,NA,NA,NA,NA,NA,NA,NA,NA,NA,NA
BART_PRSK,10152,1,18,<?xml version=1.0?>\n<Clock xmlns:dt=urn:schemas-microsoft-com:datatypes><Description dt:dt=string>E-Prime Primary Realtime Clock</Description><StartTime><Timestamp dt:dt=int>0</Timestamp><DateUtc dt:dt=string>2011-08-01T13:44:04Z</DateUtc></StartTime><FrequencyChanges><FrequencyChange><Frequency dt:dt=r8>2992640000</Frequency><Timestamp dt:dt=r8>13163907393325</Timestamp><Current dt:dt=r8>0</Current><DateUtc dt:dt=string>2011-08-01T13:44:04Z</DateUtc></FrequencyChange></FrequencyChanges></Clock>\n,8/1/2011 9:44,1,85.011,3,1,413280320,8/1/2011,9:44:04,1:44:04 PM,female,1,$6.06 ,9,RunProc,1,1,1,RunList,4,Yellow,1,1,4,1,ExpBlockProc,2517,BlockList,Exp,1,$1.13 ,17,60,16,16,148099,TrialProc,0,139955,139470,{SPACE},485,139955,0,NA,0,141987,27,141887,{SPACE},60,141947,2517,485,141988,5905,{SPACE},TrialList,timeout,4,1,4,4,$0.48 ,1,28,28,PumpIncrementProc,NA,NA,NA,NA,NA,NA,NA,912,597,208,184,176,109,174,118,863,453,972,952,NA,NA,NA,NA,NA,NA,NA,NA,NA,NA,NA,NA,NA,NA,NA,NA,NA,NA,NA,NA,NA,NA,NA,NA,1,148062,147875,,0,0,1,3,3,187,PumpIncrement,Timeout,$0.48 ,NA,NA,NA,NA,NA,NA,NA,NA,NA,NA,NA,NA,NA,NA,NA,NA,NA,NA,NA,NA,NA,NA,NA,NA,NA,NA,NA,NA,NA,NA
BART_PRSK,10152,1,18,<?xml version=1.0?>\n<Clock xmlns:dt=urn:schemas-microsoft-com:datatypes><Description dt:dt=string>E-Prime Primary Realtime Clock</Description><StartTime><Timestamp dt:dt=int>0</Timestamp><DateUtc dt:dt=string>2011-08-01T13:44:04Z</DateUtc></StartTime><FrequencyChanges><FrequencyChange><Frequency dt:dt=r8>2992640000</Frequency><Timestamp dt:dt=r8>13163907393325</Timestamp><Current dt:dt=r8>0</Current><DateUtc dt:dt=string>2011-08-01T13:44:04Z</DateUtc></FrequencyChange></FrequencyChanges></Clock>\n,8/1/2011 9:44,1,85.011,3,1,413280320,8/1/2011,9:44:04,1:44:04 PM,female,1,$6.06 ,9,RunProc,1,1,1,RunList,5,Yellow,1,1,5,1,ExpBlockProc,1842,BlockList,Exp,1,$2.10 ,16,57,10,10,160784,TrialProc,0,152555,151956,{SPACE},598,152554,0,NA,0,153798,32,153698,{SPACE},96,153794,1842,598,153799,6392,{SPACE},TrialList,inflating,5,1,5,5,$0.97 ,1,45,45,PumpIncrementProc,NA,563,903,133,140,132,133,149,141,108,143,148,143,133,443,148,143,108,119,125,122,165,128,124,93,391,139,143,120,109,NA,143,140,148,125,108,133,NA,NA,NA,NA,NA,NA,0,160762,160629,{SPACE},133,160762,1,4,4,6,PumpIncrement,inflating,$0.97 ,NA,NA,NA,NA,NA,NA,NA,NA,NA,NA,NA,NA,NA,NA,NA,NA,NA,NA,NA,NA,NA,NA,NA,NA,NA,NA,NA,NA,NA,NA
BART_PRSK,10152,1,18,<?xml version=1.0?>\n<Clock xmlns:dt=urn:schemas-microsoft-com:datatypes><Description dt:dt=string>E-Prime Primary Realtime Clock</Description><StartTime><Timestamp dt:dt=int>0</Timestamp><DateUtc dt:dt=string>2011-08-01T13:44:04Z</DateUtc></StartTime><FrequencyChanges><FrequencyChange><Frequency dt:dt=r8>2992640000</Frequency><Timestamp dt:dt=r8>13163907393325</Timestamp><Current dt:dt=r8>0</Current><DateUtc dt:dt=string>2011-08-01T13:44:04Z</DateUtc></FrequencyChange></FrequencyChanges></Clock>\n,8/1/2011 9:44,1,85.011,3,1,413280320,8/1/2011,9:44:04,1:44:04 PM,female,1,$6.06 ,9,RunProc,1,1,1,RunList,6,Yellow,1,1,6,2,ExpBlockProc,1530,BlockList,Exp,1,$2.10 ,1,12,8,8,167551,TrialProc,0,165170,164645,{SPACE},525,165170,0,NA,0,166175,24,166075,{SPACE},87,166162,1530,525,166176,6665,{SPACE},TrialList,popped,6,1,6,6,$0.00 ,1,12,12,PumpIncrementProc,420,164,141,NA,NA,NA,NA,NA,NA,NA,NA,NA,NA,NA,NA,NA,NA,NA,NA,NA,NA,NA,NA,NA,NA,NA,NA,NA,NA,NA,NA,NA,NA,NA,NA,NA,NA,NA,NA,NA,NA,NA,562,0,167530,167389,{SPACE},141,167530,1,5,5,5378,PumpIncrement,popped,$0.00 ,NA,NA,NA,NA,NA,NA,NA,NA,NA,NA,NA,NA,NA,NA,NA,NA,NA,NA,NA,NA,NA,NA,NA,NA,NA,NA,NA,NA,NA,NA
BART_PRSK,10152,1,18,<?xml version=1.0?>\n<Clock xmlns:dt=urn:schemas-microsoft-com:datatypes><Description dt:dt=string>E-Prime Primary Realtime Clock</Description><StartTime><Timestamp dt:dt=int>0</Timestamp><DateUtc dt:dt=string>2011-08-01T13:44:04Z</DateUtc></StartTime><FrequencyChanges><FrequencyChange><Frequency dt:dt=r8>2992640000</Frequency><Timestamp dt:dt=r8>13163907393325</Timestamp><Current dt:dt=r8>0</Current><DateUtc dt:dt=string>2011-08-01T13:44:04Z</DateUtc></FrequencyChange></FrequencyChanges></Clock>\n,8/1/2011 9:44,1,85.011,3,1,413280320,8/1/2011,9:44:04,1:44:04 PM,female,1,$6.06 ,9,RunProc,1,1,1,RunList,7,Yellow,1,1,7,3,ExpBlockProc,2883,BlockList,Exp,1,$2.10 ,8,33,18,18,177625,TrialProc,0,171914,171291,{SPACE},623,171914,0,NA,0,174174,25,174074,{SPACE},40,174114,2883,623,174175,5567,{SPACE},TrialList,popped,7,1,7,7,$0.00 ,1,33,33,PumpIncrementProc,NA,NA,NA,NA,NA,NA,NA,NA,NA,644,455,173,132,140,133,110,125,133,140,125,413,163,109,157,NA,NA,NA,NA,NA,NA,NA,NA,NA,NA,NA,NA,NA,NA,NA,NA,NA,NA,NA,0,177594,177437,{SPACE},157,177594,1,6,6,2415,PumpIncrement,popped,$0.00 ,NA,NA,NA,NA,NA,NA,NA,NA,NA,NA,NA,NA,NA,NA,NA,NA,NA,NA,NA,NA,NA,NA,NA,NA,NA,NA,NA,NA,NA,NA
BART_PRSK,10152,1,18,<?xml version=1.0?>\n<Clock xmlns:dt=urn:schemas-microsoft-com:datatypes><Description dt:dt=string>E-Prime Primary Realtime Clock</Description><StartTime><Timestamp dt:dt=int>0</Timestamp><DateUtc dt:dt=string>2011-08-01T13:44:04Z</DateUtc></StartTime><FrequencyChanges><FrequencyChange><Frequency dt:dt=r8>2992640000</Frequency><Timestamp dt:dt=r8>13163907393325</Timestamp><Current dt:dt=r8>0</Current><DateUtc dt:dt=string>2011-08-01T13:44:04Z</DateUtc></FrequencyChange></FrequencyChanges></Clock>\n,8/1/2011 9:44,1,85.011,3,1,413280320,8/1/2011,9:44:04,1:44:04 PM,female,1,$6.06 ,9,RunProc,1,1,1,RunList,8,Yellow,1,1,8,3,ExpBlockProc,1826,BlockList,Exp,1,$2.63 ,19,66,11,11,189893,TrialProc,0,181658,181225,{SPACE},433,181658,0,NA,0,183051,39,182951,{SPACE},67,183018,1826,433,183052,6457,{SPACE},TrialList,timeout,8,1,8,8,$0.53 ,1,30,30,PumpIncrementProc,NA,NA,541,398,144,141,109,381,167,133,108,197,1773,165,140,142,127,173,101,789,381,NA,NA,NA,NA,NA,NA,NA,NA,NA,NA,NA,NA,NA,NA,NA,NA,NA,NA,NA,NA,NA,NA,1,189856,189509,,0,0,1,7,7,347,PumpIncrement,Timeout,$0.53 ,NA,NA,NA,NA,NA,NA,NA,NA,NA,NA,NA,NA,NA,NA,NA,NA,NA,NA,NA,NA,NA,NA,NA,NA,NA,NA,NA,NA,NA,NA
BART_PRSK,10152,1,18,<?xml version=1.0?>\n<Clock xmlns:dt=urn:schemas-microsoft-com:datatypes><Description dt:dt=string>E-Prime Primary Realtime Clock</Description><StartTime><Timestamp dt:dt=int>0</Timestamp><DateUtc dt:dt=string>2011-08-01T13:44:04Z</DateUtc></StartTime><FrequencyChanges><FrequencyChange><Frequency dt:dt=r8>2992640000</Frequency><Timestamp dt:dt=r8>13163907393325</Timestamp><Current dt:dt=r8>0</Current><DateUtc dt:dt=string>2011-08-01T13:44:04Z</DateUtc></FrequencyChange></FrequencyChanges></Clock>\n,8/1/2011 9:44,1,85.011,3,1,413280320,8/1/2011,9:44:04,1:44:04 PM,female,1,$6.06 ,9,RunProc,1,1,1,RunList,9,Yellow,1,1,9,3,ExpBlockProc,884,BlockList,Exp,1,$3.00 ,20,69,2,2,202006,TrialProc,0,194186,193557,{SPACE},629,194186,0,NA,0,194441,21,194341,{SPACE},37,194378,884,629,194442,7161,{SPACE},TrialList,timeout,9,1,9,9,$0.37 ,1,23,23,PumpIncrementProc,128,141,597,140,294,444,518,407,332,476,172,132,639,400,NA,NA,NA,NA,NA,NA,NA,NA,NA,NA,NA,NA,NA,NA,NA,NA,38,NA,NA,NA,NA,NA,NA,141,134,463,414,197,141,1,201963,201150,,0,0,1,8,8,813,PumpIncrement,Timeout,$0.37 ,NA,NA,NA,NA,NA,NA,NA,NA,NA,NA,NA,NA,NA,NA,NA,NA,NA,NA,NA,NA,NA,NA,NA,NA,NA,NA,NA,NA,NA,NA
BART_PRSK,10152,1,18,<?xml version=1.0?>\n<Clock xmlns:dt=urn:schemas-microsoft-com:datatypes><Description dt:dt=string>E-Prime Primary Realtime Clock</Description><StartTime><Timestamp dt:dt=int>0</Timestamp><DateUtc dt:dt=string>2011-08-01T13:44:04Z</DateUtc></StartTime><FrequencyChanges><FrequencyChange><Frequency dt:dt=r8>2992640000</Frequency><Timestamp dt:dt=r8>13163907393325</Timestamp><Current dt:dt=r8>0</Current><DateUtc dt:dt=string>2011-08-01T13:44:04Z</DateUtc></FrequencyChange></FrequencyChanges></Clock>\n,8/1/2011 9:44,1,85.011,3,1,413280320,8/1/2011,9:44:04,1:44:04 PM,female,1,$6.06 ,9,RunProc,1,1,1,RunList,10,Yellow,1,1,10,3,ExpBlockProc,2923,BlockList,Exp,1,$3.75 ,13,48,16,16,213904,TrialProc,0,206097,205189,{SPACE},908,206097,0,NA,0,208112,23,208012,{SPACE},29,208041,2923,908,208113,5482,{SPACE},TrialList,inflating,10,1,10,10,$0.75 ,1,38,38,PumpIncrementProc,NA,NA,NA,NA,NA,NA,NA,831,639,148,151,111,140,135,147,124,165,455,124,140,101,454,357,140,132,148,151,132,477,NA,NA,NA,NA,NA,NA,NA,NA,NA,NA,NA,NA,NA,NA,0,213873,213396,{SPACE},477,213873,1,9,9,80,PumpIncrement,inflating,$0.75 ,NA,NA,NA,NA,NA,NA,NA,NA,NA,NA,NA,NA,NA,NA,NA,NA,NA,NA,NA,NA,NA,NA,NA,NA,NA,NA,NA,NA,NA,NA
BART_PRSK,10152,1,18,<?xml version=1.0?>\n<Clock xmlns:dt=urn:schemas-microsoft-com:datatypes><Description dt:dt=string>E-Prime Primary Realtime Clock</Description><StartTime><Timestamp dt:dt=int>0</Timestamp><DateUtc dt:dt=string>2011-08-01T13:44:04Z</DateUtc></StartTime><FrequencyChanges><FrequencyChange><Frequency dt:dt=r8>2992640000</Frequency><Timestamp dt:dt=r8>13163907393325</Timestamp><Current dt:dt=r8>0</Current><DateUtc dt:dt=string>2011-08-01T13:44:04Z</DateUtc></FrequencyChange></FrequencyChanges></Clock>\n,8/1/2011 9:44,1,85.011,3,1,413280320,8/1/2011,9:44:04,1:44:04 PM,female,1,$6.06 ,9,RunProc,1,1,1,RunList,11,Yellow,1,1,11,3,ExpBlockProc,1773,BlockList,Exp,1,$4.47 ,12,45,9,9,226448,TrialProc,0,218249,217644,{SPACE},605,218249,0,NA,0,219417,42,219317,{SPACE},44,219361,1773,605,219418,6485,{SPACE},TrialList,timeout,11,1,11,11,$0.72 ,1,37,37,PumpIncrementProc,520,388,143,139,109,132,109,140,101,215,110,141,140,159,323,133,141,132,325,141,101,140,541,317,367,629,140,101,NA,NA,NA,NA,NA,NA,NA,NA,NA,NA,NA,NA,NA,NA,NA,1,226404,225996,,0,0,1,10,10,408,PumpIncrement,Timeout,$0.72 ,NA,NA,NA,NA,NA,NA,NA,NA,NA,NA,NA,NA,NA,NA,NA,NA,NA,NA,NA,NA,NA,NA,NA,NA,NA,NA,NA,NA,NA,NA
BART_PRSK,10152,1,18,<?xml version=1.0?>\n<Clock xmlns:dt=urn:schemas-microsoft-com:datatypes><Description dt:dt=string>E-Prime Primary Realtime Clock</Description><StartTime><Timestamp dt:dt=int>0</Timestamp><DateUtc dt:dt=string>2011-08-01T13:44:04Z</DateUtc></StartTime><FrequencyChanges><FrequencyChange><Frequency dt:dt=r8>2992640000</Frequency><Timestamp dt:dt=r8>13163907393325</Timestamp><Current dt:dt=r8>0</Current><DateUtc dt:dt=string>2011-08-01T13:44:04Z</DateUtc></FrequencyChange></FrequencyChanges></Clock>\n,8/1/2011 9:44,1,85.011,3,1,413280320,8/1/2011,9:44:04,1:44:04 PM,female,1,$6.06 ,9,RunProc,1,1,1,RunList,12,Yellow,1,1,12,4,ExpBlockProc,1795,BlockList,Exp,1,$4.47 ,5,24,9,9,236424,TrialProc,0,230617,229980,{SPACE},637,230617,0,NA,0,231775,42,231675,{SPACE},30,231705,1795,637,231776,6453,{SPACE},TrialList,popped,12,1,12,12,$0.00 ,1,24,24,PumpIncrementProc,442,380,304,359,540,141,101,140,107,144,445,293,444,389,133,NA,NA,NA,NA,NA,NA,NA,NA,NA,NA,NA,NA,NA,NA,NA,NA,NA,NA,NA,NA,NA,NA,NA,NA,NA,NA,NA,NA,0,236385,236252,{SPACE},133,236385,1,11,11,2091,PumpIncrement,popped,$0.00 ,NA,NA,NA,NA,NA,NA,NA,NA,NA,NA,NA,NA,NA,NA,NA,NA,NA,NA,NA,NA,NA,NA,NA,NA,NA,NA,NA,NA,NA,NA
BART_PRSK,10152,1,18,<?xml version=1.0?>\n<Clock xmlns:dt=urn:schemas-microsoft-com:datatypes><Description dt:dt=string>E-Prime Primary Realtime Clock</Description><StartTime><Timestamp dt:dt=int>0</Timestamp><DateUtc dt:dt=string>2011-08-01T13:44:04Z</DateUtc></StartTime><FrequencyChanges><FrequencyChange><Frequency dt:dt=r8>2992640000</Frequency><Timestamp dt:dt=r8>13163907393325</Timestamp><Current dt:dt=r8>0</Current><DateUtc dt:dt=string>2011-08-01T13:44:04Z</DateUtc></FrequencyChange></FrequencyChanges></Clock>\n,8/1/2011 9:44,1,85.011,3,1,413280320,8/1/2011,9:44:04,1:44:04 PM,female,1,$6.06 ,9,RunProc,1,1,1,RunList,13,Yellow,1,1,13,5,ExpBlockProc,795,BlockList,Exp,1,$4.47 ,4,21,2,2,245918,TrialProc,0,240497,239964,{SPACE},533,240497,0,NA,0,240759,31,240659,{SPACE},0,240659,795,533,240760,7257,{SPACE},TrialList,popped,13,1,13,13,$0.00 ,1,21,21,PumpIncrementProc,141,259,301,357,559,141,141,134,140,424,335,445,NA,NA,NA,NA,NA,NA,NA,NA,NA,NA,NA,NA,NA,NA,NA,NA,NA,NA,386,NA,NA,NA,NA,NA,NA,391,141,133,120,152,142,0,245881,245436,{SPACE},445,245881,1,12,12,2415,PumpIncrement,popped,$0.00 ,NA,NA,NA,NA,NA,NA,NA,NA,NA,NA,NA,NA,NA,NA,NA,NA,NA,NA,NA,NA,NA,NA,NA,NA,NA,NA,NA,NA,NA,NA
BART_PRSK,10152,1,18,<?xml version=1.0?>\n<Clock xmlns:dt=urn:schemas-microsoft-com:datatypes><Description dt:dt=string>E-Prime Primary Realtime Clock</Description><StartTime><Timestamp dt:dt=int>0</Timestamp><DateUtc dt:dt=string>2011-08-01T13:44:04Z</DateUtc></StartTime><FrequencyChanges><FrequencyChange><Frequency dt:dt=r8>2992640000</Frequency><Timestamp dt:dt=r8>13163907393325</Timestamp><Current dt:dt=r8>0</Current><DateUtc dt:dt=string>2011-08-01T13:44:04Z</DateUtc></FrequencyChange></FrequencyChanges></Clock>\n,8/1/2011 9:44,1,85.011,3,1,413280320,8/1/2011,9:44:04,1:44:04 PM,female,1,$6.06 ,9,RunProc,1,1,1,RunList,14,Yellow,1,1,14,6,ExpBlockProc,795,BlockList,Exp,1,$4.47 ,3,18,18,18,252199,TrialProc,0,249817,249372,{SPACE},444,249816,1,NA,0,252177,38,252077,,0,0,NA,444,NA,5746,{SPACE},TrialList,popped,14,1,14,14,$0.00 ,NA,NA,NA,,NA,NA,NA,NA,NA,NA,NA,NA,NA,NA,NA,NA,NA,NA,NA,NA,NA,NA,NA,NA,NA,NA,NA,NA,NA,NA,NA,NA,NA,NA,NA,NA,NA,NA,NA,NA,NA,NA,NA,NA,NA,NA,NA,NA,NA,NA,,NA,NA,NA,NA,NA,NA,,,,NA,NA,NA,NA,NA,NA,NA,NA,NA,NA,NA,NA,NA,NA,NA,NA,NA,NA,NA,NA,NA,NA,NA,NA,NA,NA,NA,NA,NA,NA
BART_PRSK,10152,1,18,<?xml version=1.0?>\n<Clock xmlns:dt=urn:schemas-microsoft-com:datatypes><Description dt:dt=string>E-Prime Primary Realtime Clock</Description><StartTime><Timestamp dt:dt=int>0</Timestamp><DateUtc dt:dt=string>2011-08-01T13:44:04Z</DateUtc></StartTime><FrequencyChanges><FrequencyChange><Frequency dt:dt=r8>2992640000</Frequency><Timestamp dt:dt=r8>13163907393325</Timestamp><Current dt:dt=r8>0</Current><DateUtc dt:dt=string>2011-08-01T13:44:04Z</DateUtc></FrequencyChange></FrequencyChanges></Clock>\n,8/1/2011 9:44,1,85.011,3,1,413280320,8/1/2011,9:44:04,1:44:04 PM,female,1,$6.06 ,9,RunProc,1,1,1,RunList,15,Yellow,1,1,15,7,ExpBlockProc,3958,BlockList,Exp,1,$4.47 ,7,30,28,28,260513,TrialProc,0,256057,255693,{SPACE},363,256056,0,NA,0,259651,32,259551,{SPACE},49,259600,3958,363,259652,4827,{SPACE},TrialList,popped,15,1,15,15,$0.00 ,1,30,30,PumpIncrementProc,NA,NA,NA,NA,NA,NA,NA,NA,NA,NA,NA,NA,NA,NA,NA,NA,NA,NA,NA,379,421,NA,NA,NA,NA,NA,NA,NA,NA,NA,NA,NA,NA,NA,NA,NA,NA,NA,NA,NA,NA,NA,NA,0,260488,260067,{SPACE},421,260488,1,13,13,4027,PumpIncrement,popped,$0.00 ,NA,NA,NA,NA,NA,NA,NA,NA,NA,NA,NA,NA,NA,NA,NA,NA,NA,NA,NA,NA,NA,NA,NA,NA,NA,NA,NA,NA,NA,NA
BART_PRSK,10152,1,18,<?xml version=1.0?>\n<Clock xmlns:dt=urn:schemas-microsoft-com:datatypes><Description dt:dt=string>E-Prime Primary Realtime Clock</Description><StartTime><Timestamp dt:dt=int>0</Timestamp><DateUtc dt:dt=string>2011-08-01T13:44:04Z</DateUtc></StartTime><FrequencyChanges><FrequencyChange><Frequency dt:dt=r8>2992640000</Frequency><Timestamp dt:dt=r8>13163907393325</Timestamp><Current dt:dt=r8>0</Current><DateUtc dt:dt=string>2011-08-01T13:44:04Z</DateUtc></FrequencyChange></FrequencyChanges></Clock>\n,8/1/2011 9:44,1,85.011,3,1,413280320,8/1/2011,9:44:04,1:44:04 PM,female,1,$6.06 ,9,RunProc,1,1,1,RunList,16,Yellow,1,1,16,7,ExpBlockProc,2414,BlockList,Exp,1,$4.89 ,11,42,16,16,272583,TrialProc,0,264328,263947,{SPACE},381,264328,0,NA,0,266361,23,266261,{SPACE},43,266304,2414,381,266362,6009,{SPACE},TrialList,timeout,16,1,16,16,$0.41 ,1,25,25,PumpIncrementProc,NA,NA,NA,NA,NA,NA,NA,430,1039,173,133,335,444,844,388,517,NA,NA,NA,NA,NA,NA,NA,NA,NA,NA,NA,NA,NA,NA,NA,NA,NA,NA,NA,NA,NA,NA,NA,NA,NA,NA,NA,1,272533,270827,,0,0,1,14,14,1706,PumpIncrement,Timeout,$0.41 ,NA,NA,NA,NA,NA,NA,NA,NA,NA,NA,NA,NA,NA,NA,NA,NA,NA,NA,NA,NA,NA,NA,NA,NA,NA,NA,NA,NA,NA,NA
BART_PRSK,10152,1,18,<?xml version=1.0?>\n<Clock xmlns:dt=urn:schemas-microsoft-com:datatypes><Description dt:dt=string>E-Prime Primary Realtime Clock</Description><StartTime><Timestamp dt:dt=int>0</Timestamp><DateUtc dt:dt=string>2011-08-01T13:44:04Z</DateUtc></StartTime><FrequencyChanges><FrequencyChange><Frequency dt:dt=r8>2992640000</Frequency><Timestamp dt:dt=r8>13163907393325</Timestamp><Current dt:dt=r8>0</Current><DateUtc dt:dt=string>2011-08-01T13:44:04Z</DateUtc></FrequencyChange></FrequencyChanges></Clock>\n,8/1/2011 9:44,1,85.011,3,1,413280320,8/1/2011,9:44:04,1:44:04 PM,female,1,$6.06 ,9,RunProc,1,1,1,RunList,17,Yellow,1,1,17,8,ExpBlockProc,4192,BlockList,Exp,1,$4.89 ,9,36,29,29,282215,TrialProc,0,276680,276107,{SPACE},573,276680,0,NA,0,280299,25,280199,{SPACE},89,280288,4192,573,280300,4517,{SPACE},TrialList,popped,17,1,17,17,$0.00 ,1,36,36,PumpIncrementProc,NA,NA,NA,NA,NA,NA,NA,NA,NA,NA,NA,NA,NA,NA,NA,NA,NA,NA,NA,NA,530,335,175,140,131,151,317,NA,NA,NA,NA,NA,NA,NA,NA,NA,NA,NA,NA,NA,NA,NA,NA,0,282184,281867,{SPACE},317,282184,1,15,15,2738,PumpIncrement,popped,$0.00 ,NA,NA,NA,NA,NA,NA,NA,NA,NA,NA,NA,NA,NA,NA,NA,NA,NA,NA,NA,NA,NA,NA,NA,NA,NA,NA,NA,NA,NA,NA
BART_PRSK,10152,1,18,<?xml version=1.0?>\n<Clock xmlns:dt=urn:schemas-microsoft-com:datatypes><Description dt:dt=string>E-Prime Primary Realtime Clock</Description><StartTime><Timestamp dt:dt=int>0</Timestamp><DateUtc dt:dt=string>2011-08-01T13:44:04Z</DateUtc></StartTime><FrequencyChanges><FrequencyChange><Frequency dt:dt=r8>2992640000</Frequency><Timestamp dt:dt=r8>13163907393325</Timestamp><Current dt:dt=r8>0</Current><DateUtc dt:dt=string>2011-08-01T13:44:04Z</DateUtc></FrequencyChange></FrequencyChanges></Clock>\n,8/1/2011 9:44,1,85.011,3,1,413280320,8/1/2011,9:44:04,1:44:04 PM,female,1,$6.06 ,9,RunProc,1,1,1,RunList,18,Yellow,1,1,18,8,ExpBlockProc,2974,BlockList,Exp,1,$5.47 ,18,63,20,20,294318,TrialProc,0,286016,285577,{SPACE},439,286016,0,NA,0,288551,26,288451,{SPACE},37,288488,2974,439,288552,5551,{SPACE},TrialList,timeout,18,1,18,18,$0.58 ,1,32,32,PumpIncrementProc,NA,NA,NA,NA,NA,NA,NA,NA,NA,NA,NA,446,224,520,360,381,324,691,174,141,567,423,876,NA,NA,NA,NA,NA,NA,NA,NA,NA,NA,NA,NA,NA,NA,NA,NA,NA,NA,NA,NA,1,294291,293867,,0,0,1,16,16,424,PumpIncrement,Timeout,$0.58 ,NA,NA,NA,NA,NA,NA,NA,NA,NA,NA,NA,NA,NA,NA,NA,NA,NA,NA,NA,NA,NA,NA,NA,NA,NA,NA,NA,NA,NA,NA
BART_PRSK,10152,1,18,<?xml version=1.0?>\n<Clock xmlns:dt=urn:schemas-microsoft-com:datatypes><Description dt:dt=string>E-Prime Primary Realtime Clock</Description><StartTime><Timestamp dt:dt=int>0</Timestamp><DateUtc dt:dt=string>2011-08-01T13:44:04Z</DateUtc></StartTime><FrequencyChanges><FrequencyChange><Frequency dt:dt=r8>2992640000</Frequency><Timestamp dt:dt=r8>13163907393325</Timestamp><Current dt:dt=r8>0</Current><DateUtc dt:dt=string>2011-08-01T13:44:04Z</DateUtc></FrequencyChange></FrequencyChanges></Clock>\n,8/1/2011 9:44,1,85.011,3,1,413280320,8/1/2011,9:44:04,1:44:04 PM,female,1,$6.06 ,9,RunProc,1,1,1,RunList,19,Yellow,1,1,19,9,ExpBlockProc,2974,BlockList,Exp,1,$5.47 ,2,15,15,15,300436,TrialProc,0,298448,297857,{SPACE},590,298447,1,NA,0,300414,26,300314,,0,0,NA,590,NA,5900,{SPACE},TrialList,popped,19,1,19,19,$0.00 ,NA,NA,NA,,NA,NA,NA,NA,NA,NA,NA,NA,NA,NA,NA,NA,NA,NA,NA,NA,NA,NA,NA,NA,NA,NA,NA,NA,NA,NA,NA,NA,NA,NA,NA,NA,NA,NA,NA,NA,NA,NA,NA,NA,NA,NA,NA,NA,NA,NA,,NA,NA,NA,NA,NA,NA,,,,NA,NA,NA,NA,NA,NA,NA,NA,NA,NA,NA,NA,NA,NA,NA,NA,NA,NA,NA,NA,NA,NA,NA,NA,NA,NA,NA,NA,NA,NA
BART_PRSK,10152,1,18,<?xml version=1.0?>\n<Clock xmlns:dt=urn:schemas-microsoft-com:datatypes><Description dt:dt=string>E-Prime Primary Realtime Clock</Description><StartTime><Timestamp dt:dt=int>0</Timestamp><DateUtc dt:dt=string>2011-08-01T13:44:04Z</DateUtc></StartTime><FrequencyChanges><FrequencyChange><Frequency dt:dt=r8>2992640000</Frequency><Timestamp dt:dt=r8>13163907393325</Timestamp><Current dt:dt=r8>0</Current><DateUtc dt:dt=string>2011-08-01T13:44:04Z</DateUtc></FrequencyChange></FrequencyChanges></Clock>\n,8/1/2011 9:44,1,85.011,3,1,413280320,8/1/2011,9:44:04,1:44:04 PM,female,1,$6.06 ,9,RunProc,1,1,1,RunList,20,Yellow,1,1,20,9,ExpBlockProc,2799,BlockList,Exp,1,$6.06 ,14,51,17,17,312693,TrialProc,0,304703,304067,{SPACE},636,304703,0,NA,0,306866,30,306766,{SPACE},9,306775,2799,636,306867,5654,{SPACE},TrialList,inflating,20,1,20,20,$0.58 ,1,32,32,PumpIncrementProc,NA,NA,NA,NA,NA,NA,NA,NA,637,182,132,204,501,239,151,164,173,164,293,335,423,1245,725,NA,NA,NA,NA,NA,NA,NA,NA,NA,NA,NA,NA,NA,NA,NA,NA,NA,NA,NA,NA,0,312664,311939,{SPACE},725,312664,1,17,17,86,PumpIncrement,inflating,$0.58 ,NA,NA,NA,NA,NA,NA,NA,NA,NA,NA,NA,NA,NA,NA,NA,NA,NA,NA,NA,NA,NA,NA,NA,NA,NA,NA,NA,NA,NA,NA
BART_PRSK,10153,1,16,<?xml version=1.0?>\n<Clock xmlns:dt=urn:schemas-microsoft-com:datatypes><Description dt:dt=string>E-Prime Primary Realtime Clock</Description><StartTime><Timestamp dt:dt=int>0</Timestamp><DateUtc dt:dt=string>2011-11-08T18:28:15Z</DateUtc></StartTime><FrequencyChanges><FrequencyChange><Frequency dt:dt=r8>2992670000</Frequency><Timestamp dt:dt=r8>74752086153352</Timestamp><Current dt:dt=r8>0</Current><DateUtc dt:dt=string>2011-11-08T18:28:15Z</DateUtc></FrequencyChange></FrequencyChanges></Clock>\n,11/8/2011 13:28,0,85.069,0,1,-1590746878,11/8/2011,13:28:15,6:28:15 PM,female,1,$6.57 ,5,RunProc,1,1,1,RunList,1,Yellow,1,1,1,0,ExpBlockProc,3655,BlockList,Exp,1,$0.16 ,5,24,12,12,109657,TrialProc,0,103646,101426,{SPACE},2220,103646,0,NA,0,105081,24,104981,{SPACE},25,105006,3655,2220,105081,4570,{SPACE},TrialList,timeout,1,1,1,1,$0.16 ,1,12,12,PumpIncrementProc,NA,NA,NA,NA,NA,NA,NA,NA,NA,NA,NA,NA,NA,NA,NA,NA,NA,NA,NA,NA,NA,NA,NA,NA,NA,NA,NA,NA,NA,NA,NA,NA,NA,NA,NA,NA,NA,NA,NA,NA,NA,NA,NA,1,109654,105084,NA,0,0,1,1,1,4570,PumpIncrement,Timeout,$0.16 ,NA,NA,NA,NA,NA,NA,NA,NA,NA,NA,NA,NA,NA,NA,NA,NA,NA,NA,NA,NA,NA,NA,NA,NA,NA,NA,NA,NA,NA,NA
BART_PRSK,10153,1,16,<?xml version=1.0?>\n<Clock xmlns:dt=urn:schemas-microsoft-com:datatypes><Description dt:dt=string>E-Prime Primary Realtime Clock</Description><StartTime><Timestamp dt:dt=int>0</Timestamp><DateUtc dt:dt=string>2011-11-08T18:28:15Z</DateUtc></StartTime><FrequencyChanges><FrequencyChange><Frequency dt:dt=r8>2992670000</Frequency><Timestamp dt:dt=r8>74752086153352</Timestamp><Current dt:dt=r8>0</Current><DateUtc dt:dt=string>2011-11-08T18:28:15Z</DateUtc></FrequencyChange></FrequencyChanges></Clock>\n,11/8/2011 13:28,0,85.069,0,1,-1590746878,11/8/2011,13:28:15,6:28:15 PM,female,1,$6.57 ,5,RunProc,1,1,1,RunList,2,Yellow,1,1,2,1,ExpBlockProc,3655,BlockList,Exp,1,$0.16 ,8,33,33,33,119667,TrialProc,0,115662,114406,{SPACE},1256,115662,1,NA,0,119665,17,119565,,0,0,NA,1256,NA,3434,{SPACE},TrialList,popped,2,1,2,2,$0.00 ,NA,NA,NA,,NA,NA,NA,NA,NA,NA,NA,NA,NA,NA,NA,NA,NA,NA,NA,NA,NA,NA,NA,NA,NA,NA,NA,NA,NA,NA,NA,NA,NA,NA,NA,NA,NA,NA,NA,NA,NA,NA,NA,NA,NA,NA,NA,NA,NA,NA,NA,NA,NA,NA,NA,NA,NA,,,,NA,NA,NA,NA,NA,NA,NA,NA,NA,NA,NA,NA,NA,NA,NA,NA,NA,NA,NA,NA,NA,NA,NA,NA,NA,NA,NA,NA,NA,NA
BART_PRSK,10153,1,16,<?xml version=1.0?>\n<Clock xmlns:dt=urn:schemas-microsoft-com:datatypes><Description dt:dt=string>E-Prime Primary Realtime Clock</Description><StartTime><Timestamp dt:dt=int>0</Timestamp><DateUtc dt:dt=string>2011-11-08T18:28:15Z</DateUtc></StartTime><FrequencyChanges><FrequencyChange><Frequency dt:dt=r8>2992670000</Frequency><Timestamp dt:dt=r8>74752086153352</Timestamp><Current dt:dt=r8>0</Current><DateUtc dt:dt=string>2011-11-08T18:28:15Z</DateUtc></FrequencyChange></FrequencyChanges></Clock>\n,11/8/2011 13:28,0,85.069,0,1,-1590746878,11/8/2011,13:28:15,6:28:15 PM,female,1,$6.57 ,5,RunProc,1,1,1,RunList,3,Yellow,1,1,3,1,ExpBlockProc,3531,BlockList,Exp,1,$0.44 ,20,69,19,19,133209,TrialProc,0,126030,124789,{SPACE},1241,126030,0,NA,0,128320,27,128220,{SPACE},89,128309,3531,1241,128320,4849,{SPACE},TrialList,timeout,3,1,3,3,$0.28 ,1,19,19,PumpIncrementProc,NA,NA,NA,NA,NA,NA,NA,NA,NA,NA,NA,NA,NA,NA,NA,NA,NA,NA,NA,NA,NA,NA,NA,NA,NA,NA,NA,NA,NA,NA,NA,NA,NA,NA,NA,NA,NA,NA,NA,NA,NA,NA,NA,1,133176,128327,NA,0,0,1,2,2,4849,PumpIncrement,Timeout,$0.28 ,NA,NA,NA,NA,NA,NA,NA,NA,NA,NA,NA,NA,NA,NA,NA,NA,NA,NA,NA,NA,NA,NA,NA,NA,NA,NA,NA,NA,NA,NA
BART_PRSK,10153,1,16,<?xml version=1.0?>\n<Clock xmlns:dt=urn:schemas-microsoft-com:datatypes><Description dt:dt=string>E-Prime Primary Realtime Clock</Description><StartTime><Timestamp dt:dt=int>0</Timestamp><DateUtc dt:dt=string>2011-11-08T18:28:15Z</DateUtc></StartTime><FrequencyChanges><FrequencyChange><Frequency dt:dt=r8>2992670000</Frequency><Timestamp dt:dt=r8>74752086153352</Timestamp><Current dt:dt=r8>0</Current><DateUtc dt:dt=string>2011-11-08T18:28:15Z</DateUtc></FrequencyChange></FrequencyChanges></Clock>\n,11/8/2011 13:28,0,85.069,0,1,-1590746878,11/8/2011,13:28:15,6:28:15 PM,female,1,$6.57 ,5,RunProc,1,1,1,RunList,4,Yellow,1,1,4,1,ExpBlockProc,3602,BlockList,Exp,1,$0.81 ,17,60,23,23,145484,TrialProc,0,137877,137015,{SPACE},862,137877,0,NA,0,140617,27,140517,{SPACE},72,140589,3602,862,140617,4828,{SPACE},TrialList,timeout,4,1,4,4,$0.37 ,1,23,23,PumpIncrementProc,NA,NA,NA,NA,NA,NA,NA,NA,NA,NA,NA,NA,NA,NA,NA,NA,NA,NA,NA,NA,NA,NA,NA,NA,NA,NA,NA,NA,NA,NA,NA,NA,NA,NA,NA,NA,NA,NA,NA,NA,NA,NA,NA,1,145451,140623,NA,0,0,1,3,3,4828,PumpIncrement,Timeout,$0.37 ,NA,NA,NA,NA,NA,NA,NA,NA,NA,NA,NA,NA,NA,NA,NA,NA,NA,NA,NA,NA,NA,NA,NA,NA,NA,NA,NA,NA,NA,NA
BART_PRSK,10153,1,16,<?xml version=1.0?>\n<Clock xmlns:dt=urn:schemas-microsoft-com:datatypes><Description dt:dt=string>E-Prime Primary Realtime Clock</Description><StartTime><Timestamp dt:dt=int>0</Timestamp><DateUtc dt:dt=string>2011-11-08T18:28:15Z</DateUtc></StartTime><FrequencyChanges><FrequencyChange><Frequency dt:dt=r8>2992670000</Frequency><Timestamp dt:dt=r8>74752086153352</Timestamp><Current dt:dt=r8>0</Current><DateUtc dt:dt=string>2011-11-08T18:28:15Z</DateUtc></FrequencyChange></FrequencyChanges></Clock>\n,11/8/2011 13:28,0,85.069,0,1,-1590746878,11/8/2011,13:28:15,6:28:15 PM,female,1,$6.57 ,5,RunProc,1,1,1,RunList,5,Yellow,1,1,5,1,ExpBlockProc,3359,BlockList,Exp,1,$1.16 ,6,27,22,22,157695,TrialProc,0,149917,149205,{SPACE},712,149917,0,NA,0,152564,17,152464,{SPACE},85,152549,3359,712,152564,5078,{SPACE},TrialList,timeout,5,1,5,5,$0.35 ,1,22,22,PumpIncrementProc,NA,NA,NA,NA,NA,NA,NA,NA,NA,NA,NA,NA,NA,NA,NA,NA,NA,NA,NA,NA,NA,NA,NA,NA,NA,NA,NA,NA,NA,NA,NA,NA,NA,NA,NA,NA,NA,NA,NA,NA,NA,NA,NA,1,157649,152571,NA,0,0,1,4,4,5078,PumpIncrement,Timeout,$0.35 ,NA,NA,NA,NA,NA,NA,NA,NA,NA,NA,NA,NA,NA,NA,NA,NA,NA,NA,NA,NA,NA,NA,NA,NA,NA,NA,NA,NA,NA,NA
BART_PRSK,10153,1,16,<?xml version=1.0?>\n<Clock xmlns:dt=urn:schemas-microsoft-com:datatypes><Description dt:dt=string>E-Prime Primary Realtime Clock</Description><StartTime><Timestamp dt:dt=int>0</Timestamp><DateUtc dt:dt=string>2011-11-08T18:28:15Z</DateUtc></StartTime><FrequencyChanges><FrequencyChange><Frequency dt:dt=r8>2992670000</Frequency><Timestamp dt:dt=r8>74752086153352</Timestamp><Current dt:dt=r8>0</Current><DateUtc dt:dt=string>2011-11-08T18:28:15Z</DateUtc></FrequencyChange></FrequencyChanges></Clock>\n,11/8/2011 13:28,0,85.069,0,1,-1590746878,11/8/2011,13:28:15,6:28:15 PM,female,1,$6.57 ,5,RunProc,1,1,1,RunList,6,Yellow,1,1,6,1,ExpBlockProc,4064,BlockList,Exp,1,$1.62 ,15,54,27,27,170398,TrialProc,0,162637,161821,{SPACE},815,162636,0,NA,0,165885,16,165785,{SPACE},59,165844,4064,815,165885,4475,{SPACE},TrialList,timeout,6,1,6,6,$0.46 ,1,27,27,PumpIncrementProc,NA,NA,NA,NA,NA,NA,NA,NA,NA,NA,NA,NA,NA,NA,NA,NA,NA,NA,NA,NA,NA,NA,NA,NA,NA,NA,NA,NA,NA,NA,NA,NA,NA,NA,NA,NA,NA,NA,NA,NA,NA,NA,NA,1,170366,165891,NA,0,0,1,5,5,4475,PumpIncrement,Timeout,$0.46 ,NA,NA,NA,NA,NA,NA,NA,NA,NA,NA,NA,NA,NA,NA,NA,NA,NA,NA,NA,NA,NA,NA,NA,NA,NA,NA,NA,NA,NA,NA
BART_PRSK,10153,1,16,<?xml version=1.0?>\n<Clock xmlns:dt=urn:schemas-microsoft-com:datatypes><Description dt:dt=string>E-Prime Primary Realtime Clock</Description><StartTime><Timestamp dt:dt=int>0</Timestamp><DateUtc dt:dt=string>2011-11-08T18:28:15Z</DateUtc></StartTime><FrequencyChanges><FrequencyChange><Frequency dt:dt=r8>2992670000</Frequency><Timestamp dt:dt=r8>74752086153352</Timestamp><Current dt:dt=r8>0</Current><DateUtc dt:dt=string>2011-11-08T18:28:15Z</DateUtc></FrequencyChange></FrequencyChanges></Clock>\n,11/8/2011 13:28,0,85.069,0,1,-1590746878,11/8/2011,13:28:15,6:28:15 PM,female,1,$6.57 ,5,RunProc,1,1,1,RunList,7,Yellow,1,1,7,1,ExpBlockProc,5155,BlockList,Exp,1,$2.31 ,18,63,36,36,183038,TrialProc,0,175060,174252,{SPACE},808,175060,0,NA,0,179407,17,179307,{SPACE},65,179372,5155,808,179407,3582,{SPACE},TrialList,timeout,7,1,7,7,$0.69 ,1,36,36,PumpIncrementProc,NA,NA,NA,NA,NA,NA,NA,NA,NA,NA,NA,NA,NA,NA,NA,NA,NA,NA,NA,NA,NA,NA,NA,NA,NA,NA,NA,NA,NA,NA,NA,NA,NA,NA,NA,NA,NA,NA,NA,NA,NA,NA,NA,1,182996,179414,NA,0,0,1,6,6,3582,PumpIncrement,Timeout,$0.69 ,NA,NA,NA,NA,NA,NA,NA,NA,NA,NA,NA,NA,NA,NA,NA,NA,NA,NA,NA,NA,NA,NA,NA,NA,NA,NA,NA,NA,NA,NA
BART_PRSK,10153,1,16,<?xml version=1.0?>\n<Clock xmlns:dt=urn:schemas-microsoft-com:datatypes><Description dt:dt=string>E-Prime Primary Realtime Clock</Description><StartTime><Timestamp dt:dt=int>0</Timestamp><DateUtc dt:dt=string>2011-11-08T18:28:15Z</DateUtc></StartTime><FrequencyChanges><FrequencyChange><Frequency dt:dt=r8>2992670000</Frequency><Timestamp dt:dt=r8>74752086153352</Timestamp><Current dt:dt=r8>0</Current><DateUtc dt:dt=string>2011-11-08T18:28:15Z</DateUtc></FrequencyChange></FrequencyChanges></Clock>\n,11/8/2011 13:28,0,85.069,0,1,-1590746878,11/8/2011,13:28:15,6:28:15 PM,female,1,$6.57 ,5,RunProc,1,1,1,RunList,8,Yellow,1,1,8,2,ExpBlockProc,5155,BlockList,Exp,1,$2.31 ,2,15,15,15,189471,TrialProc,0,187668,186882,{SPACE},786,187668,1,NA,0,189445,16,189345,,0,0,NA,786,NA,5704,{SPACE},TrialList,popped,8,1,8,8,$0.00 ,NA,NA,NA,,NA,NA,NA,NA,NA,NA,NA,NA,NA,NA,NA,NA,NA,NA,NA,NA,NA,NA,NA,NA,NA,NA,NA,NA,NA,NA,NA,NA,NA,NA,NA,NA,NA,NA,NA,NA,NA,NA,NA,NA,NA,NA,NA,NA,NA,NA,NA,NA,NA,NA,NA,NA,NA,,,,NA,NA,NA,NA,NA,NA,NA,NA,NA,NA,NA,NA,NA,NA,NA,NA,NA,NA,NA,NA,NA,NA,NA,NA,NA,NA,NA,NA,NA,NA
BART_PRSK,10153,1,16,<?xml version=1.0?>\n<Clock xmlns:dt=urn:schemas-microsoft-com:datatypes><Description dt:dt=string>E-Prime Primary Realtime Clock</Description><StartTime><Timestamp dt:dt=int>0</Timestamp><DateUtc dt:dt=string>2011-11-08T18:28:15Z</DateUtc></StartTime><FrequencyChanges><FrequencyChange><Frequency dt:dt=r8>2992670000</Frequency><Timestamp dt:dt=r8>74752086153352</Timestamp><Current dt:dt=r8>0</Current><DateUtc dt:dt=string>2011-11-08T18:28:15Z</DateUtc></FrequencyChange></FrequencyChanges></Clock>\n,11/8/2011 13:28,0,85.069,0,1,-1590746878,11/8/2011,13:28:15,6:28:15 PM,female,1,$6.57 ,5,RunProc,1,1,1,RunList,9,Yellow,1,1,9,2,ExpBlockProc,4276,BlockList,Exp,1,$2.84 ,10,39,30,30,201859,TrialProc,0,193948,193244,{SPACE},704,193948,0,NA,0,197520,27,197420,{SPACE},71,197491,4276,704,197520,4286,{SPACE},TrialList,timeout,9,1,9,9,$0.53 ,1,30,30,PumpIncrementProc,NA,NA,NA,NA,NA,NA,NA,NA,NA,NA,NA,NA,NA,NA,NA,NA,NA,NA,NA,NA,NA,NA,NA,NA,NA,NA,NA,NA,NA,NA,NA,NA,NA,NA,NA,NA,NA,NA,NA,NA,NA,NA,NA,1,201822,197536,NA,0,0,1,7,7,4286,PumpIncrement,Timeout,$0.53 ,NA,NA,NA,NA,NA,NA,NA,NA,NA,NA,NA,NA,NA,NA,NA,NA,NA,NA,NA,NA,NA,NA,NA,NA,NA,NA,NA,NA,NA,NA
BART_PRSK,10153,1,16,<?xml version=1.0?>\n<Clock xmlns:dt=urn:schemas-microsoft-com:datatypes><Description dt:dt=string>E-Prime Primary Realtime Clock</Description><StartTime><Timestamp dt:dt=int>0</Timestamp><DateUtc dt:dt=string>2011-11-08T18:28:15Z</DateUtc></StartTime><FrequencyChanges><FrequencyChange><Frequency dt:dt=r8>2992670000</Frequency><Timestamp dt:dt=r8>74752086153352</Timestamp><Current dt:dt=r8>0</Current><DateUtc dt:dt=string>2011-11-08T18:28:15Z</DateUtc></FrequencyChange></FrequencyChanges></Clock>\n,11/8/2011 13:28,0,85.069,0,1,-1590746878,11/8/2011,13:28:15,6:28:15 PM,female,1,$6.57 ,5,RunProc,1,1,1,RunList,10,Yellow,1,1,10,2,ExpBlockProc,3752,BlockList,Exp,1,$3.21 ,12,45,23,23,214417,TrialProc,0,206491,205705,{SPACE},786,206491,0,NA,0,209457,27,209357,{SPACE},86,209443,3752,786,209458,4904,{SPACE},TrialList,timeout,10,1,10,10,$0.37 ,1,23,23,PumpIncrementProc,NA,NA,NA,NA,NA,NA,NA,NA,NA,NA,NA,NA,NA,NA,NA,NA,NA,NA,NA,NA,NA,NA,NA,NA,NA,NA,NA,NA,NA,NA,NA,NA,NA,NA,NA,NA,NA,NA,NA,NA,NA,NA,NA,1,214370,209466,NA,0,0,1,8,8,4904,PumpIncrement,Timeout,$0.37 ,NA,NA,NA,NA,NA,NA,NA,NA,NA,NA,NA,NA,NA,NA,NA,NA,NA,NA,NA,NA,NA,NA,NA,NA,NA,NA,NA,NA,NA,NA
BART_PRSK,10153,1,16,<?xml version=1.0?>\n<Clock xmlns:dt=urn:schemas-microsoft-com:datatypes><Description dt:dt=string>E-Prime Primary Realtime Clock</Description><StartTime><Timestamp dt:dt=int>0</Timestamp><DateUtc dt:dt=string>2011-11-08T18:28:15Z</DateUtc></StartTime><FrequencyChanges><FrequencyChange><Frequency dt:dt=r8>2992670000</Frequency><Timestamp dt:dt=r8>74752086153352</Timestamp><Current dt:dt=r8>0</Current><DateUtc dt:dt=string>2011-11-08T18:28:15Z</DateUtc></FrequencyChange></FrequencyChanges></Clock>\n,11/8/2011 13:28,0,85.069,0,1,-1590746878,11/8/2011,13:28:15,6:28:15 PM,female,1,$6.57 ,5,RunProc,1,1,1,RunList,11,Yellow,1,1,11,2,ExpBlockProc,4086,BlockList,Exp,1,$3.65 ,7,30,26,26,226674,TrialProc,0,218843,217999,{SPACE},844,218843,0,NA,0,222085,29,221985,{SPACE},34,222019,4086,844,222086,4546,{SPACE},TrialList,timeout,11,1,11,11,$0.44 ,1,26,26,PumpIncrementProc,NA,NA,NA,NA,NA,NA,NA,NA,NA,NA,NA,NA,NA,NA,NA,NA,NA,NA,NA,NA,NA,NA,NA,NA,NA,NA,NA,NA,NA,NA,NA,NA,NA,NA,NA,NA,NA,NA,NA,NA,NA,NA,NA,1,226639,222093,NA,0,0,1,9,9,4546,PumpIncrement,Timeout,$0.44 ,NA,NA,NA,NA,NA,NA,NA,NA,NA,NA,NA,NA,NA,NA,NA,NA,NA,NA,NA,NA,NA,NA,NA,NA,NA,NA,NA,NA,NA,NA
BART_PRSK,10153,1,16,<?xml version=1.0?>\n<Clock xmlns:dt=urn:schemas-microsoft-com:datatypes><Description dt:dt=string>E-Prime Primary Realtime Clock</Description><StartTime><Timestamp dt:dt=int>0</Timestamp><DateUtc dt:dt=string>2011-11-08T18:28:15Z</DateUtc></StartTime><FrequencyChanges><FrequencyChange><Frequency dt:dt=r8>2992670000</Frequency><Timestamp dt:dt=r8>74752086153352</Timestamp><Current dt:dt=r8>0</Current><DateUtc dt:dt=string>2011-11-08T18:28:15Z</DateUtc></FrequencyChange></FrequencyChanges></Clock>\n,11/8/2011 13:28,0,85.069,0,1,-1590746878,11/8/2011,13:28:15,6:28:15 PM,female,1,$6.57 ,5,RunProc,1,1,1,RunList,12,Yellow,1,1,12,3,ExpBlockProc,4086,BlockList,Exp,1,$3.65 ,1,12,12,12,232440,TrialProc,0,230978,230250,{SPACE},728,230978,1,NA,0,232424,17,232324,,0,0,NA,728,NA,6062,{SPACE},TrialList,popped,12,1,12,12,$0.00 ,NA,NA,NA,,NA,NA,NA,NA,NA,NA,NA,NA,NA,NA,NA,NA,NA,NA,NA,NA,NA,NA,NA,NA,NA,NA,NA,NA,NA,NA,NA,NA,NA,NA,NA,NA,NA,NA,NA,NA,NA,NA,NA,NA,NA,NA,NA,NA,NA,NA,NA,NA,NA,NA,NA,NA,NA,,,,NA,NA,NA,NA,NA,NA,NA,NA,NA,NA,NA,NA,NA,NA,NA,NA,NA,NA,NA,NA,NA,NA,NA,NA,NA,NA,NA,NA,NA,NA
BART_PRSK,10153,1,16,<?xml version=1.0?>\n<Clock xmlns:dt=urn:schemas-microsoft-com:datatypes><Description dt:dt=string>E-Prime Primary Realtime Clock</Description><StartTime><Timestamp dt:dt=int>0</Timestamp><DateUtc dt:dt=string>2011-11-08T18:28:15Z</DateUtc></StartTime><FrequencyChanges><FrequencyChange><Frequency dt:dt=r8>2992670000</Frequency><Timestamp dt:dt=r8>74752086153352</Timestamp><Current dt:dt=r8>0</Current><DateUtc dt:dt=string>2011-11-08T18:28:15Z</DateUtc></FrequencyChange></FrequencyChanges></Clock>\n,11/8/2011 13:28,0,85.069,0,1,-1590746878,11/8/2011,13:28:15,6:28:15 PM,female,1,$6.57 ,5,RunProc,1,1,1,RunList,13,Yellow,1,1,13,4,ExpBlockProc,4086,BlockList,Exp,1,$3.65 ,4,21,21,21,239547,TrialProc,0,236866,236118,{SPACE},748,236866,1,NA,0,239518,24,239418,,0,0,NA,748,NA,5142,{SPACE},TrialList,popped,13,1,13,13,$0.00 ,NA,NA,NA,,NA,NA,NA,NA,NA,NA,NA,NA,NA,NA,NA,NA,NA,NA,NA,NA,NA,NA,NA,NA,NA,NA,NA,NA,NA,NA,NA,NA,NA,NA,NA,NA,NA,NA,NA,NA,NA,NA,NA,NA,NA,NA,NA,NA,NA,NA,NA,NA,NA,NA,NA,NA,NA,,,,NA,NA,NA,NA,NA,NA,NA,NA,NA,NA,NA,NA,NA,NA,NA,NA,NA,NA,NA,NA,NA,NA,NA,NA,NA,NA,NA,NA,NA,NA
BART_PRSK,10153,1,16,<?xml version=1.0?>\n<Clock xmlns:dt=urn:schemas-microsoft-com:datatypes><Description dt:dt=string>E-Prime Primary Realtime Clock</Description><StartTime><Timestamp dt:dt=int>0</Timestamp><DateUtc dt:dt=string>2011-11-08T18:28:15Z</DateUtc></StartTime><FrequencyChanges><FrequencyChange><Frequency dt:dt=r8>2992670000</Frequency><Timestamp dt:dt=r8>74752086153352</Timestamp><Current dt:dt=r8>0</Current><DateUtc dt:dt=string>2011-11-08T18:28:15Z</DateUtc></FrequencyChange></FrequencyChanges></Clock>\n,11/8/2011 13:28,0,85.069,0,1,-1590746878,11/8/2011,13:28:15,6:28:15 PM,female,1,$6.57 ,5,RunProc,1,1,1,RunList,14,Yellow,1,1,14,5,ExpBlockProc,4086,BlockList,Exp,1,$3.65 ,3,18,18,18,246043,TrialProc,0,243802,243262,{SPACE},540,243802,1,NA,0,246021,25,245921,,0,0,NA,540,NA,5650,{SPACE},TrialList,popped,14,1,14,14,$0.00 ,NA,NA,NA,,NA,NA,NA,NA,NA,NA,NA,NA,NA,NA,NA,NA,NA,NA,NA,NA,NA,NA,NA,NA,NA,NA,NA,NA,NA,NA,NA,NA,NA,NA,NA,NA,NA,NA,NA,NA,NA,NA,NA,NA,NA,NA,NA,NA,NA,NA,NA,NA,NA,NA,NA,NA,NA,,,,NA,NA,NA,NA,NA,NA,NA,NA,NA,NA,NA,NA,NA,NA,NA,NA,NA,NA,NA,NA,NA,NA,NA,NA,NA,NA,NA,NA,NA,NA
BART_PRSK,10153,1,16,<?xml version=1.0?>\n<Clock xmlns:dt=urn:schemas-microsoft-com:datatypes><Description dt:dt=string>E-Prime Primary Realtime Clock</Description><StartTime><Timestamp dt:dt=int>0</Timestamp><DateUtc dt:dt=string>2011-11-08T18:28:15Z</DateUtc></StartTime><FrequencyChanges><FrequencyChange><Frequency dt:dt=r8>2992670000</Frequency><Timestamp dt:dt=r8>74752086153352</Timestamp><Current dt:dt=r8>0</Current><DateUtc dt:dt=string>2011-11-08T18:28:15Z</DateUtc></FrequencyChange></FrequencyChanges></Clock>\n,11/8/2011 13:28,0,85.069,0,1,-1590746878,11/8/2011,13:28:15,6:28:15 PM,female,1,$6.57 ,5,RunProc,1,1,1,RunList,15,Yellow,1,1,15,5,ExpBlockProc,2421,BlockList,Exp,1,$3.97 ,16,57,14,14,257897,TrialProc,0,249986,249383,{SPACE},603,249986,0,NA,0,251804,21,251704,{SPACE},66,251770,2421,603,251805,5987,{SPACE},TrialList,timeout,15,1,15,15,$0.33 ,1,21,21,PumpIncrementProc,NA,NA,NA,NA,NA,1350,671,424,391,672,366,592,NA,NA,NA,NA,NA,NA,NA,NA,NA,NA,NA,NA,NA,NA,NA,NA,NA,NA,NA,NA,NA,NA,NA,NA,NA,NA,NA,NA,NA,NA,NA,1,257860,256339,NA,0,0,1,10,10,1521,PumpIncrement,Timeout,$0.33 ,NA,NA,NA,NA,NA,NA,NA,NA,NA,NA,NA,NA,NA,NA,NA,NA,NA,NA,NA,NA,NA,NA,NA,NA,NA,NA,NA,NA,NA,NA
BART_PRSK,10153,1,16,<?xml version=1.0?>\n<Clock xmlns:dt=urn:schemas-microsoft-com:datatypes><Description dt:dt=string>E-Prime Primary Realtime Clock</Description><StartTime><Timestamp dt:dt=int>0</Timestamp><DateUtc dt:dt=string>2011-11-08T18:28:15Z</DateUtc></StartTime><FrequencyChanges><FrequencyChange><Frequency dt:dt=r8>2992670000</Frequency><Timestamp dt:dt=r8>74752086153352</Timestamp><Current dt:dt=r8>0</Current><DateUtc dt:dt=string>2011-11-08T18:28:15Z</DateUtc></FrequencyChange></FrequencyChanges></Clock>\n,11/8/2011 13:28,0,85.069,0,1,-1590746878,11/8/2011,13:28:15,6:28:15 PM,female,1,$6.57 ,5,RunProc,1,1,1,RunList,16,Yellow,1,1,16,5,ExpBlockProc,3429,BlockList,Exp,1,$4.48 ,9,36,23,23,270135,TrialProc,0,262313,261618,{SPACE},695,262313,0,NA,0,265047,17,264947,{SPACE},46,264993,3429,695,265047,4995,{SPACE},TrialList,timeout,16,1,16,16,$0.51 ,1,29,29,PumpIncrementProc,NA,NA,NA,NA,NA,NA,NA,NA,NA,NA,NA,NA,NA,NA,1604,424,289,744,1073,512,NA,NA,NA,NA,NA,NA,NA,NA,NA,NA,NA,NA,NA,NA,NA,NA,NA,NA,NA,NA,NA,NA,NA,1,270093,269744,NA,0,0,1,11,11,349,PumpIncrement,Timeout,$0.51 ,NA,NA,NA,NA,NA,NA,NA,NA,NA,NA,NA,NA,NA,NA,NA,NA,NA,NA,NA,NA,NA,NA,NA,NA,NA,NA,NA,NA,NA,NA
BART_PRSK,10153,1,16,<?xml version=1.0?>\n<Clock xmlns:dt=urn:schemas-microsoft-com:datatypes><Description dt:dt=string>E-Prime Primary Realtime Clock</Description><StartTime><Timestamp dt:dt=int>0</Timestamp><DateUtc dt:dt=string>2011-11-08T18:28:15Z</DateUtc></StartTime><FrequencyChanges><FrequencyChange><Frequency dt:dt=r8>2992670000</Frequency><Timestamp dt:dt=r8>74752086153352</Timestamp><Current dt:dt=r8>0</Current><DateUtc dt:dt=string>2011-11-08T18:28:15Z</DateUtc></FrequencyChange></FrequencyChanges></Clock>\n,11/8/2011 13:28,0,85.069,0,1,-1590746878,11/8/2011,13:28:15,6:28:15 PM,female,1,$6.57 ,5,RunProc,1,1,1,RunList,17,Yellow,1,1,17,5,ExpBlockProc,5457,BlockList,Exp,1,$5.09 ,11,42,33,33,283089,TrialProc,0,275577,274237,{SPACE},1340,275577,0,NA,0,279694,20,279594,{SPACE},55,279649,5457,1340,279695,3350,{SPACE},TrialList,timeout,17,1,17,17,$0.61 ,1,33,33,PumpIncrementProc,NA,NA,NA,NA,NA,NA,NA,NA,NA,NA,NA,NA,NA,NA,NA,NA,NA,NA,NA,NA,NA,NA,NA,NA,NA,NA,NA,NA,NA,NA,NA,NA,NA,NA,NA,NA,NA,NA,NA,NA,NA,NA,NA,1,283052,279702,NA,0,0,1,12,12,3350,PumpIncrement,Timeout,$0.61 ,NA,NA,NA,NA,NA,NA,NA,NA,NA,NA,NA,NA,NA,NA,NA,NA,NA,NA,NA,NA,NA,NA,NA,NA,NA,NA,NA,NA,NA,NA
BART_PRSK,10153,1,16,<?xml version=1.0?>\n<Clock xmlns:dt=urn:schemas-microsoft-com:datatypes><Description dt:dt=string>E-Prime Primary Realtime Clock</Description><StartTime><Timestamp dt:dt=int>0</Timestamp><DateUtc dt:dt=string>2011-11-08T18:28:15Z</DateUtc></StartTime><FrequencyChanges><FrequencyChange><Frequency dt:dt=r8>2992670000</Frequency><Timestamp dt:dt=r8>74752086153352</Timestamp><Current dt:dt=r8>0</Current><DateUtc dt:dt=string>2011-11-08T18:28:15Z</DateUtc></FrequencyChange></FrequencyChanges></Clock>\n,11/8/2011 13:28,0,85.069,0,1,-1590746878,11/8/2011,13:28:15,6:28:15 PM,female,1,$6.57 ,5,RunProc,1,1,1,RunList,18,Yellow,1,1,18,5,ExpBlockProc,3976,BlockList,Exp,1,$5.53 ,19,66,26,26,295726,TrialProc,0,287753,287034,{SPACE},719,287753,0,NA,0,291010,32,290910,{SPACE},19,290929,3976,719,291011,4671,{SPACE},TrialList,timeout,18,1,18,18,$0.44 ,1,26,26,PumpIncrementProc,NA,NA,NA,NA,NA,NA,NA,NA,NA,NA,NA,NA,NA,NA,NA,NA,NA,NA,NA,NA,NA,NA,NA,NA,NA,NA,NA,NA,NA,NA,NA,NA,NA,NA,NA,NA,NA,NA,NA,NA,NA,NA,NA,1,295689,291018,NA,0,0,1,13,13,4671,PumpIncrement,Timeout,$0.44 ,NA,NA,NA,NA,NA,NA,NA,NA,NA,NA,NA,NA,NA,NA,NA,NA,NA,NA,NA,NA,NA,NA,NA,NA,NA,NA,NA,NA,NA,NA
BART_PRSK,10153,1,16,<?xml version=1.0?>\n<Clock xmlns:dt=urn:schemas-microsoft-com:datatypes><Description dt:dt=string>E-Prime Primary Realtime Clock</Description><StartTime><Timestamp dt:dt=int>0</Timestamp><DateUtc dt:dt=string>2011-11-08T18:28:15Z</DateUtc></StartTime><FrequencyChanges><FrequencyChange><Frequency dt:dt=r8>2992670000</Frequency><Timestamp dt:dt=r8>74752086153352</Timestamp><Current dt:dt=r8>0</Current><DateUtc dt:dt=string>2011-11-08T18:28:15Z</DateUtc></FrequencyChange></FrequencyChanges></Clock>\n,11/8/2011 13:28,0,85.069,0,1,-1590746878,11/8/2011,13:28:15,6:28:15 PM,female,1,$6.57 ,5,RunProc,1,1,1,RunList,19,Yellow,1,1,19,5,ExpBlockProc,4438,BlockList,Exp,1,$6.08 ,13,48,31,31,308267,TrialProc,0,300329,299617,{SPACE},711,300328,0,NA,0,304055,27,303955,{SPACE},13,303968,4438,711,304055,4179,{SPACE},TrialList,timeout,19,1,19,19,$0.56 ,1,31,31,PumpIncrementProc,NA,NA,NA,NA,NA,NA,NA,NA,NA,NA,NA,NA,NA,NA,NA,NA,NA,NA,NA,NA,NA,NA,NA,NA,NA,NA,NA,NA,NA,NA,NA,NA,NA,NA,NA,NA,NA,NA,NA,NA,NA,NA,NA,1,308241,304062,NA,0,0,1,14,14,4179,PumpIncrement,Timeout,$0.56 ,NA,NA,NA,NA,NA,NA,NA,NA,NA,NA,NA,NA,NA,NA,NA,NA,NA,NA,NA,NA,NA,NA,NA,NA,NA,NA,NA,NA,NA,NA
BART_PRSK,10153,1,16,<?xml version=1.0?>\n<Clock xmlns:dt=urn:schemas-microsoft-com:datatypes><Description dt:dt=string>E-Prime Primary Realtime Clock</Description><StartTime><Timestamp dt:dt=int>0</Timestamp><DateUtc dt:dt=string>2011-11-08T18:28:15Z</DateUtc></StartTime><FrequencyChanges><FrequencyChange><Frequency dt:dt=r8>2992670000</Frequency><Timestamp dt:dt=r8>74752086153352</Timestamp><Current dt:dt=r8>0</Current><DateUtc dt:dt=string>2011-11-08T18:28:15Z</DateUtc></FrequencyChange></FrequencyChanges></Clock>\n,11/8/2011 13:28,0,85.069,0,1,-1590746878,11/8/2011,13:28:15,6:28:15 PM,female,1,$6.57 ,5,RunProc,1,1,1,RunList,20,Yellow,1,1,20,5,ExpBlockProc,4006,BlockList,Exp,1,$6.57 ,14,51,27,27,321398,TrialProc,0,313296,312669,{SPACE},627,313296,0,NA,0,316675,32,316575,{SPACE},65,316640,4006,627,316676,4663,{SPACE},TrialList,timeout,20,1,20,20,$0.48 ,1,28,28,PumpIncrementProc,NA,NA,NA,NA,NA,NA,NA,NA,NA,NA,NA,NA,NA,NA,NA,NA,NA,NA,1085,NA,NA,NA,NA,NA,NA,NA,NA,NA,NA,NA,NA,NA,NA,NA,NA,NA,NA,NA,NA,NA,NA,NA,NA,1,321356,317778,NA,0,0,1,15,15,3578,PumpIncrement,Timeout,$0.48 ,NA,NA,NA,NA,NA,NA,NA,NA,NA,NA,NA,NA,NA,NA,NA,NA,NA,NA,NA,NA,NA,NA,NA,NA,NA,NA,NA,NA,NA,NA
BART_PRSK,10156,1,18,<?xml version=1.0?>\n<Clock xmlns:dt=urn:schemas-microsoft-com:datatypes><Description dt:dt=string>E-Prime Primary Realtime Clock</Description><StartTime><Timestamp dt:dt=int>0</Timestamp><DateUtc dt:dt=string>2011-08-10T19:41:00Z</DateUtc></StartTime><FrequencyChanges><FrequencyChange><Frequency dt:dt=r8>2992630000</Frequency><Timestamp dt:dt=r8>32743585863285</Timestamp><Current dt:dt=r8>0</Current><DateUtc dt:dt=string>2011-08-10T19:41:00Z</DateUtc></FrequencyChange></FrequencyChanges></Clock>\n,8/10/2011 15:41,1,85.043,3,1,-654082091,8/10/2011,15:41:01,7:41:01 PM,male,1,$6.84 ,7,RunProc,1,1,1,RunList,1,Yellow,1,1,1,0,ExpBlockProc,4037,BlockList,Exp,1,$0.58 ,10,39,22,22,92270,TrialProc,0,85159,83740,{SPACE},1419,85159,0,NA,0,87777,17,87677,{SPACE},42,87719,4037,1419,87777,4371,{SPACE},TrialList,timeout,1,1,1,1,$0.58 ,1,32,32,PumpIncrementProc,NA,NA,NA,NA,NA,NA,NA,NA,NA,NA,NA,NA,NA,707,437,857,672,262,175,176,520,192,184,NA,NA,NA,NA,NA,NA,NA,NA,NA,NA,NA,NA,NA,NA,NA,NA,NA,NA,NA,NA,1,92267,92078,,0,0,1,1,1,189,PumpIncrement,Timeout,$0.58 ,NA,NA,NA,NA,NA,NA,NA,NA,NA,NA,NA,NA,NA,NA,NA,NA,NA,NA,NA,NA,NA,NA,NA,NA,NA,NA,NA,NA,NA,NA
BART_PRSK,10156,1,18,<?xml version=1.0?>\n<Clock xmlns:dt=urn:schemas-microsoft-com:datatypes><Description dt:dt=string>E-Prime Primary Realtime Clock</Description><StartTime><Timestamp dt:dt=int>0</Timestamp><DateUtc dt:dt=string>2011-08-10T19:41:00Z</DateUtc></StartTime><FrequencyChanges><FrequencyChange><Frequency dt:dt=r8>2992630000</Frequency><Timestamp dt:dt=r8>32743585863285</Timestamp><Current dt:dt=r8>0</Current><DateUtc dt:dt=string>2011-08-10T19:41:00Z</DateUtc></FrequencyChange></FrequencyChanges></Clock>\n,8/10/2011 15:41,1,85.043,3,1,-654082091,8/10/2011,15:41:01,7:41:01 PM,male,1,$6.84 ,7,RunProc,1,1,1,RunList,2,Yellow,1,1,2,1,ExpBlockProc,4037,BlockList,Exp,1,$0.58 ,1,12,12,12,103512,TrialProc,0,102070,101350,{SPACE},720,102070,1,NA,0,103510,16,103410,,0,0,NA,720,NA,6070,{SPACE},TrialList,popped,2,1,2,2,$0.00 ,NA,NA,NA,,NA,NA,NA,NA,NA,NA,NA,NA,NA,NA,NA,NA,NA,NA,NA,NA,NA,NA,NA,NA,NA,NA,NA,NA,NA,NA,NA,NA,NA,NA,NA,NA,NA,NA,NA,NA,NA,NA,NA,NA,NA,NA,NA,NA,NA,NA,,NA,NA,NA,NA,NA,NA,,,,NA,NA,NA,NA,NA,NA,NA,NA,NA,NA,NA,NA,NA,NA,NA,NA,NA,NA,NA,NA,NA,NA,NA,NA,NA,NA,NA,NA,NA,NA
BART_PRSK,10156,1,18,<?xml version=1.0?>\n<Clock xmlns:dt=urn:schemas-microsoft-com:datatypes><Description dt:dt=string>E-Prime Primary Realtime Clock</Description><StartTime><Timestamp dt:dt=int>0</Timestamp><DateUtc dt:dt=string>2011-08-10T19:41:00Z</DateUtc></StartTime><FrequencyChanges><FrequencyChange><Frequency dt:dt=r8>2992630000</Frequency><Timestamp dt:dt=r8>32743585863285</Timestamp><Current dt:dt=r8>0</Current><DateUtc dt:dt=string>2011-08-10T19:41:00Z</DateUtc></FrequencyChange></FrequencyChanges></Clock>\n,8/10/2011 15:41,1,85.043,3,1,-654082091,8/10/2011,15:41:01,7:41:01 PM,male,1,$6.84 ,7,RunProc,1,1,1,RunList,3,Yellow,1,1,3,1,ExpBlockProc,1197,BlockList,Exp,1,$0.97 ,6,27,5,5,115915,TrialProc,0,108182,107606,{SPACE},576,108182,0,NA,0,108803,13,108703,{SPACE},0,108703,1197,576,108803,6914,{SPACE},TrialList,inflating,3,1,3,3,$0.39 ,1,24,24,PumpIncrementProc,191,253,705,241,231,262,664,262,447,273,241,231,513,313,479,NA,NA,NA,NA,NA,NA,NA,NA,NA,NA,NA,NA,NA,NA,NA,NA,NA,NA,NA,NA,NA,NA,NA,NA,453,609,261,231,0,115910,115431,{SPACE},479,115910,1,2,2,54,PumpIncrement,inflating,$0.39 ,NA,NA,NA,NA,NA,NA,NA,NA,NA,NA,NA,NA,NA,NA,NA,NA,NA,NA,NA,NA,NA,NA,NA,NA,NA,NA,NA,NA,NA,NA
BART_PRSK,10156,1,18,<?xml version=1.0?>\n<Clock xmlns:dt=urn:schemas-microsoft-com:datatypes><Description dt:dt=string>E-Prime Primary Realtime Clock</Description><StartTime><Timestamp dt:dt=int>0</Timestamp><DateUtc dt:dt=string>2011-08-10T19:41:00Z</DateUtc></StartTime><FrequencyChanges><FrequencyChange><Frequency dt:dt=r8>2992630000</Frequency><Timestamp dt:dt=r8>32743585863285</Timestamp><Current dt:dt=r8>0</Current><DateUtc dt:dt=string>2011-08-10T19:41:00Z</DateUtc></FrequencyChange></FrequencyChanges></Clock>\n,8/10/2011 15:41,1,85.043,3,1,-654082091,8/10/2011,15:41:01,7:41:01 PM,male,1,$6.84 ,7,RunProc,1,1,1,RunList,4,Yellow,1,1,4,1,ExpBlockProc,832,BlockList,Exp,1,$1.36 ,16,57,2,2,128176,TrialProc,0,120502,119915,{SPACE},587,120502,0,NA,0,120747,17,120647,{SPACE},95,120742,832,587,120747,7203,{SPACE},TrialList,inflating,4,1,4,4,$0.39 ,1,24,24,PumpIncrementProc,209,177,175,175,233,231,215,223,241,479,423,481,489,471,833,NA,NA,NA,NA,NA,NA,NA,NA,NA,NA,NA,NA,NA,NA,NA,429,NA,NA,NA,NA,NA,NA,329,249,167,217,169,553,0,128158,127325,{SPACE},833,128158,1,3,3,35,PumpIncrement,inflating,$0.39 ,NA,NA,NA,NA,NA,NA,NA,NA,NA,NA,NA,NA,NA,NA,NA,NA,NA,NA,NA,NA,NA,NA,NA,NA,NA,NA,NA,NA,NA,NA
BART_PRSK,10156,1,18,<?xml version=1.0?>\n<Clock xmlns:dt=urn:schemas-microsoft-com:datatypes><Description dt:dt=string>E-Prime Primary Realtime Clock</Description><StartTime><Timestamp dt:dt=int>0</Timestamp><DateUtc dt:dt=string>2011-08-10T19:41:00Z</DateUtc></StartTime><FrequencyChanges><FrequencyChange><Frequency dt:dt=r8>2992630000</Frequency><Timestamp dt:dt=r8>32743585863285</Timestamp><Current dt:dt=r8>0</Current><DateUtc dt:dt=string>2011-08-10T19:41:00Z</DateUtc></FrequencyChange></FrequencyChanges></Clock>\n,8/10/2011 15:41,1,85.043,3,1,-654082091,8/10/2011,15:41:01,7:41:01 PM,male,1,$6.84 ,7,RunProc,1,1,1,RunList,5,Yellow,1,1,5,1,ExpBlockProc,883,BlockList,Exp,1,$1.97 ,18,63,2,2,140535,TrialProc,0,132750,132123,{SPACE},627,132750,0,NA,0,133006,28,132906,{SPACE},60,132966,883,627,133006,7163,{SPACE},TrialList,timeout,5,1,5,5,$0.61 ,1,33,33,PumpIncrementProc,153,135,143,176,306,241,170,393,242,225,194,224,202,210,241,177,242,231,236,252,236,263,215,348,NA,NA,NA,NA,NA,NA,145,NA,NA,NA,NA,NA,NA,177,447,185,144,153,167,1,140506,140216,,0,0,1,4,4,290,PumpIncrement,Timeout,$0.61 ,NA,NA,NA,NA,NA,NA,NA,NA,NA,NA,NA,NA,NA,NA,NA,NA,NA,NA,NA,NA,NA,NA,NA,NA,NA,NA,NA,NA,NA,NA
BART_PRSK,10156,1,18,<?xml version=1.0?>\n<Clock xmlns:dt=urn:schemas-microsoft-com:datatypes><Description dt:dt=string>E-Prime Primary Realtime Clock</Description><StartTime><Timestamp dt:dt=int>0</Timestamp><DateUtc dt:dt=string>2011-08-10T19:41:00Z</DateUtc></StartTime><FrequencyChanges><FrequencyChange><Frequency dt:dt=r8>2992630000</Frequency><Timestamp dt:dt=r8>32743585863285</Timestamp><Current dt:dt=r8>0</Current><DateUtc dt:dt=string>2011-08-10T19:41:00Z</DateUtc></FrequencyChange></FrequencyChanges></Clock>\n,8/10/2011 15:41,1,85.043,3,1,-654082091,8/10/2011,15:41:01,7:41:01 PM,male,1,$6.84 ,7,RunProc,1,1,1,RunList,6,Yellow,1,1,6,1,ExpBlockProc,800,BlockList,Exp,1,$2.75 ,13,48,2,2,153378,TrialProc,0,145382,144856,{SPACE},526,145382,0,NA,0,145656,43,145556,{SPACE},18,145574,800,526,145657,7264,{SPACE},TrialList,inflating,6,1,6,6,$0.78 ,1,39,39,PumpIncrementProc,166,174,133,160,184,176,200,166,197,223,157,176,182,224,191,174,207,208,175,205,208,207,206,239,248,253,237,295,303,292,93,NA,NA,NA,NA,NA,NA,166,173,166,151,133,173,0,153358,153065,{SPACE},292,153357,1,5,5,43,PumpIncrement,inflating,$0.78 ,NA,NA,NA,NA,NA,NA,NA,NA,NA,NA,NA,NA,NA,NA,NA,NA,NA,NA,NA,NA,NA,NA,NA,NA,NA,NA,NA,NA,NA,NA
BART_PRSK,10156,1,18,<?xml version=1.0?>\n<Clock xmlns:dt=urn:schemas-microsoft-com:datatypes><Description dt:dt=string>E-Prime Primary Realtime Clock</Description><StartTime><Timestamp dt:dt=int>0</Timestamp><DateUtc dt:dt=string>2011-08-10T19:41:00Z</DateUtc></StartTime><FrequencyChanges><FrequencyChange><Frequency dt:dt=r8>2992630000</Frequency><Timestamp dt:dt=r8>32743585863285</Timestamp><Current dt:dt=r8>0</Current><DateUtc dt:dt=string>2011-08-10T19:41:00Z</DateUtc></FrequencyChange></FrequencyChanges></Clock>\n,8/10/2011 15:41,1,85.043,3,1,-654082091,8/10/2011,15:41:01,7:41:01 PM,male,1,$6.84 ,7,RunProc,1,1,1,RunList,7,Yellow,1,1,7,1,ExpBlockProc,661,BlockList,Exp,1,$3.50 ,14,51,2,2,165668,TrialProc,0,157549,157143,{SPACE},406,157549,0,NA,0,157804,23,157704,{SPACE},37,157741,661,406,157805,7384,{SPACE},TrialList,inflating,7,1,7,7,$0.75 ,1,38,38,PumpIncrementProc,206,164,176,183,176,183,208,197,170,197,209,208,207,172,207,208,207,205,197,166,215,198,229,231,206,241,228,204,195,NA,112,NA,NA,NA,NA,NA,NA,381,239,216,207,197,196,0,165645,165450,{SPACE},195,165645,1,6,6,43,PumpIncrement,inflating,$0.75 ,NA,NA,NA,NA,NA,NA,NA,NA,NA,NA,NA,NA,NA,NA,NA,NA,NA,NA,NA,NA,NA,NA,NA,NA,NA,NA,NA,NA,NA,NA
BART_PRSK,10156,1,18,<?xml version=1.0?>\n<Clock xmlns:dt=urn:schemas-microsoft-com:datatypes><Description dt:dt=string>E-Prime Primary Realtime Clock</Description><StartTime><Timestamp dt:dt=int>0</Timestamp><DateUtc dt:dt=string>2011-08-10T19:41:00Z</DateUtc></StartTime><FrequencyChanges><FrequencyChange><Frequency dt:dt=r8>2992630000</Frequency><Timestamp dt:dt=r8>32743585863285</Timestamp><Current dt:dt=r8>0</Current><DateUtc dt:dt=string>2011-08-10T19:41:00Z</DateUtc></FrequencyChange></FrequencyChanges></Clock>\n,8/10/2011 15:41,1,85.043,3,1,-654082091,8/10/2011,15:41:01,7:41:01 PM,male,1,$6.84 ,7,RunProc,1,1,1,RunList,8,Yellow,1,1,8,2,ExpBlockProc,679,BlockList,Exp,1,$3.50 ,9,36,2,2,178080,TrialProc,0,169933,169520,{SPACE},413,169933,0,NA,0,170199,43,170099,{SPACE},18,170117,679,413,170200,7377,{SPACE},TrialList,popped,8,1,8,8,$0.00 ,1,36,36,PumpIncrementProc,193,214,233,209,241,184,241,198,231,206,196,213,229,197,212,191,260,196,204,263,204,239,180,229,207,211,229,NA,NA,NA,406,NA,NA,NA,NA,NA,NA,214,132,172,207,208,209,0,178029,177800,{SPACE},229,178029,1,7,7,19,PumpIncrement,popped,$0.00 ,NA,NA,NA,NA,NA,NA,NA,NA,NA,NA,NA,NA,NA,NA,NA,NA,NA,NA,NA,NA,NA,NA,NA,NA,NA,NA,NA,NA,NA,NA
BART_PRSK,10156,1,18,<?xml version=1.0?>\n<Clock xmlns:dt=urn:schemas-microsoft-com:datatypes><Description dt:dt=string>E-Prime Primary Realtime Clock</Description><StartTime><Timestamp dt:dt=int>0</Timestamp><DateUtc dt:dt=string>2011-08-10T19:41:00Z</DateUtc></StartTime><FrequencyChanges><FrequencyChange><Frequency dt:dt=r8>2992630000</Frequency><Timestamp dt:dt=r8>32743585863285</Timestamp><Current dt:dt=r8>0</Current><DateUtc dt:dt=string>2011-08-10T19:41:00Z</DateUtc></FrequencyChange></FrequencyChanges></Clock>\n,8/10/2011 15:41,1,85.043,3,1,-654082091,8/10/2011,15:41:01,7:41:01 PM,male,1,$6.84 ,7,RunProc,1,1,1,RunList,9,Yellow,1,1,9,3,ExpBlockProc,774,BlockList,Exp,1,$3.50 ,5,24,2,2,186844,TrialProc,0,181797,181285,{SPACE},512,181797,0,NA,0,182059,31,181959,{SPACE},22,181981,774,512,182060,7278,{SPACE},TrialList,popped,9,1,9,9,$0.00 ,1,24,24,PumpIncrementProc,175,206,183,196,175,244,174,207,183,207,207,163,213,247,262,NA,NA,NA,NA,NA,NA,NA,NA,NA,NA,NA,NA,NA,NA,NA,105,NA,NA,NA,NA,NA,NA,359,207,183,207,182,196,0,186789,186527,{SPACE},262,186789,1,8,8,2797,PumpIncrement,popped,$0.00 ,NA,NA,NA,NA,NA,NA,NA,NA,NA,NA,NA,NA,NA,NA,NA,NA,NA,NA,NA,NA,NA,NA,NA,NA,NA,NA,NA,NA,NA,NA
BART_PRSK,10156,1,18,<?xml version=1.0?>\n<Clock xmlns:dt=urn:schemas-microsoft-com:datatypes><Description dt:dt=string>E-Prime Primary Realtime Clock</Description><StartTime><Timestamp dt:dt=int>0</Timestamp><DateUtc dt:dt=string>2011-08-10T19:41:00Z</DateUtc></StartTime><FrequencyChanges><FrequencyChange><Frequency dt:dt=r8>2992630000</Frequency><Timestamp dt:dt=r8>32743585863285</Timestamp><Current dt:dt=r8>0</Current><DateUtc dt:dt=string>2011-08-10T19:41:00Z</DateUtc></FrequencyChange></FrequencyChanges></Clock>\n,8/10/2011 15:41,1,85.043,3,1,-654082091,8/10/2011,15:41:01,7:41:01 PM,male,1,$6.84 ,7,RunProc,1,1,1,RunList,10,Yellow,1,1,10,4,ExpBlockProc,632,BlockList,Exp,1,$3.50 ,7,30,2,2,198609,TrialProc,0,190773,190392,{SPACE},381,190773,0,NA,0,191024,21,190924,{SPACE},41,190965,632,381,191025,7409,{SPACE},TrialList,popped,10,1,10,10,$0.00 ,1,30,30,PumpIncrementProc,175,165,204,166,196,207,172,197,207,205,227,279,341,261,443,407,396,347,391,439,402,NA,NA,NA,NA,NA,NA,NA,NA,NA,149,NA,NA,NA,NA,NA,NA,222,207,197,172,176,183,0,198573,198171,{SPACE},402,198573,1,9,9,276,PumpIncrement,popped,$0.00 ,NA,NA,NA,NA,NA,NA,NA,NA,NA,NA,NA,NA,NA,NA,NA,NA,NA,NA,NA,NA,NA,NA,NA,NA,NA,NA,NA,NA,NA,NA
BART_PRSK,10156,1,18,<?xml version=1.0?>\n<Clock xmlns:dt=urn:schemas-microsoft-com:datatypes><Description dt:dt=string>E-Prime Primary Realtime Clock</Description><StartTime><Timestamp dt:dt=int>0</Timestamp><DateUtc dt:dt=string>2011-08-10T19:41:00Z</DateUtc></StartTime><FrequencyChanges><FrequencyChange><Frequency dt:dt=r8>2992630000</Frequency><Timestamp dt:dt=r8>32743585863285</Timestamp><Current dt:dt=r8>0</Current><DateUtc dt:dt=string>2011-08-10T19:41:00Z</DateUtc></FrequencyChange></FrequencyChanges></Clock>\n,8/10/2011 15:41,1,85.043,3,1,-654082091,8/10/2011,15:41:01,7:41:01 PM,male,1,$6.84 ,7,RunProc,1,1,1,RunList,11,Yellow,1,1,11,4,ExpBlockProc,690,BlockList,Exp,1,$3.96 ,8,33,2,2,210178,TrialProc,0,202149,201709,{SPACE},440,202149,0,NA,0,202399,19,202299,{SPACE},66,202365,690,440,202400,7350,{SPACE},TrialList,timeout,11,1,11,11,$0.46 ,1,27,27,PumpIncrementProc,175,172,144,173,197,173,310,228,325,311,238,215,213,227,260,448,508,695,NA,NA,NA,NA,NA,NA,NA,NA,NA,NA,NA,NA,138,NA,NA,NA,NA,NA,NA,197,151,195,165,151,207,1,210151,209017,,0,0,1,10,10,1134,PumpIncrement,Timeout,$0.46 ,NA,NA,NA,NA,NA,NA,NA,NA,NA,NA,NA,NA,NA,NA,NA,NA,NA,NA,NA,NA,NA,NA,NA,NA,NA,NA,NA,NA,NA,NA
BART_PRSK,10156,1,18,<?xml version=1.0?>\n<Clock xmlns:dt=urn:schemas-microsoft-com:datatypes><Description dt:dt=string>E-Prime Primary Realtime Clock</Description><StartTime><Timestamp dt:dt=int>0</Timestamp><DateUtc dt:dt=string>2011-08-10T19:41:00Z</DateUtc></StartTime><FrequencyChanges><FrequencyChange><Frequency dt:dt=r8>2992630000</Frequency><Timestamp dt:dt=r8>32743585863285</Timestamp><Current dt:dt=r8>0</Current><DateUtc dt:dt=string>2011-08-10T19:41:00Z</DateUtc></FrequencyChange></FrequencyChanges></Clock>\n,8/10/2011 15:41,1,85.043,3,1,-654082091,8/10/2011,15:41:01,7:41:01 PM,male,1,$6.84 ,7,RunProc,1,1,1,RunList,12,Yellow,1,1,12,4,ExpBlockProc,735,BlockList,Exp,1,$4.38 ,15,54,3,3,222193,TrialProc,0,214077,213728,{SPACE},348,214076,0,NA,0,214463,24,214363,{SPACE},81,214444,735,348,214464,7342,{SPACE},TrialList,timeout,12,1,12,12,$0.41 ,1,25,25,PumpIncrementProc,197,212,206,237,212,220,206,252,190,268,390,340,389,422,509,678,NA,NA,NA,NA,NA,NA,NA,NA,NA,NA,NA,NA,NA,NA,NA,NA,NA,NA,NA,NA,NA,228,404,171,172,156,182,1,222174,221073,,0,0,1,11,11,1101,PumpIncrement,Timeout,$0.41 ,NA,NA,NA,NA,NA,NA,NA,NA,NA,NA,NA,NA,NA,NA,NA,NA,NA,NA,NA,NA,NA,NA,NA,NA,NA,NA,NA,NA,NA,NA
BART_PRSK,10156,1,18,<?xml version=1.0?>\n<Clock xmlns:dt=urn:schemas-microsoft-com:datatypes><Description dt:dt=string>E-Prime Primary Realtime Clock</Description><StartTime><Timestamp dt:dt=int>0</Timestamp><DateUtc dt:dt=string>2011-08-10T19:41:00Z</DateUtc></StartTime><FrequencyChanges><FrequencyChange><Frequency dt:dt=r8>2992630000</Frequency><Timestamp dt:dt=r8>32743585863285</Timestamp><Current dt:dt=r8>0</Current><DateUtc dt:dt=string>2011-08-10T19:41:00Z</DateUtc></FrequencyChange></FrequencyChanges></Clock>\n,8/10/2011 15:41,1,85.043,3,1,-654082091,8/10/2011,15:41:01,7:41:01 PM,male,1,$6.84 ,7,RunProc,1,1,1,RunList,13,Yellow,1,1,13,4,ExpBlockProc,642,BlockList,Exp,1,$4.88 ,12,45,2,2,234441,TrialProc,0,226292,225896,{SPACE},396,226292,0,NA,0,226538,26,226438,{SPACE},78,226516,642,396,226539,7394,{SPACE},TrialList,timeout,13,1,13,13,$0.51 ,1,29,29,PumpIncrementProc,196,173,196,196,205,196,196,238,227,197,303,324,327,324,411,367,348,324,327,356,NA,NA,NA,NA,NA,NA,NA,NA,NA,NA,423,NA,NA,NA,NA,NA,NA,194,207,203,195,208,380,1,234419,234266,,0,0,1,12,12,153,PumpIncrement,Timeout,$0.51 ,NA,NA,NA,NA,NA,NA,NA,NA,NA,NA,NA,NA,NA,NA,NA,NA,NA,NA,NA,NA,NA,NA,NA,NA,NA,NA,NA,NA,NA,NA
BART_PRSK,10156,1,18,<?xml version=1.0?>\n<Clock xmlns:dt=urn:schemas-microsoft-com:datatypes><Description dt:dt=string>E-Prime Primary Realtime Clock</Description><StartTime><Timestamp dt:dt=int>0</Timestamp><DateUtc dt:dt=string>2011-08-10T19:41:00Z</DateUtc></StartTime><FrequencyChanges><FrequencyChange><Frequency dt:dt=r8>2992630000</Frequency><Timestamp dt:dt=r8>32743585863285</Timestamp><Current dt:dt=r8>0</Current><DateUtc dt:dt=string>2011-08-10T19:41:00Z</DateUtc></FrequencyChange></FrequencyChanges></Clock>\n,8/10/2011 15:41,1,85.043,3,1,-654082091,8/10/2011,15:41:01,7:41:01 PM,male,1,$6.84 ,7,RunProc,1,1,1,RunList,14,Yellow,1,1,14,4,ExpBlockProc,3625,BlockList,Exp,1,$5.39 ,17,60,25,25,246855,TrialProc,0,238564,238092,{SPACE},472,238564,0,NA,0,241717,17,241617,{SPACE},11,241628,3625,472,241717,5018,{SPACE},TrialList,timeout,14,1,14,14,$0.51 ,1,29,29,PumpIncrementProc,NA,NA,NA,NA,NA,NA,NA,NA,NA,NA,NA,NA,NA,NA,NA,NA,432,476,660,2108,NA,NA,NA,NA,NA,NA,NA,NA,NA,NA,NA,NA,NA,NA,NA,NA,NA,NA,NA,NA,NA,NA,NA,1,246822,245480,,0,0,1,13,13,1342,PumpIncrement,Timeout,$0.51 ,NA,NA,NA,NA,NA,NA,NA,NA,NA,NA,NA,NA,NA,NA,NA,NA,NA,NA,NA,NA,NA,NA,NA,NA,NA,NA,NA,NA,NA,NA
BART_PRSK,10156,1,18,<?xml version=1.0?>\n<Clock xmlns:dt=urn:schemas-microsoft-com:datatypes><Description dt:dt=string>E-Prime Primary Realtime Clock</Description><StartTime><Timestamp dt:dt=int>0</Timestamp><DateUtc dt:dt=string>2011-08-10T19:41:00Z</DateUtc></StartTime><FrequencyChanges><FrequencyChange><Frequency dt:dt=r8>2992630000</Frequency><Timestamp dt:dt=r8>32743585863285</Timestamp><Current dt:dt=r8>0</Current><DateUtc dt:dt=string>2011-08-10T19:41:00Z</DateUtc></FrequencyChange></FrequencyChanges></Clock>\n,8/10/2011 15:41,1,85.043,3,1,-654082091,8/10/2011,15:41:01,7:41:01 PM,male,1,$6.84 ,7,RunProc,1,1,1,RunList,15,Yellow,1,1,15,5,ExpBlockProc,3625,BlockList,Exp,1,$5.39 ,2,15,15,15,253126,TrialProc,0,251196,250640,{SPACE},556,251196,1,NA,0,253102,26,253002,,0,0,NA,556,NA,5934,{SPACE},TrialList,popped,15,1,15,15,$0.00 ,NA,NA,NA,,NA,NA,NA,NA,NA,NA,NA,NA,NA,NA,NA,NA,NA,NA,NA,NA,NA,NA,NA,NA,NA,NA,NA,NA,NA,NA,NA,NA,NA,NA,NA,NA,NA,NA,NA,NA,NA,NA,NA,NA,NA,NA,NA,NA,NA,NA,,NA,NA,NA,NA,NA,NA,,,,NA,NA,NA,NA,NA,NA,NA,NA,NA,NA,NA,NA,NA,NA,NA,NA,NA,NA,NA,NA,NA,NA,NA,NA,NA,NA,NA,NA,NA,NA
BART_PRSK,10156,1,18,<?xml version=1.0?>\n<Clock xmlns:dt=urn:schemas-microsoft-com:datatypes><Description dt:dt=string>E-Prime Primary Realtime Clock</Description><StartTime><Timestamp dt:dt=int>0</Timestamp><DateUtc dt:dt=string>2011-08-10T19:41:00Z</DateUtc></StartTime><FrequencyChanges><FrequencyChange><Frequency dt:dt=r8>2992630000</Frequency><Timestamp dt:dt=r8>32743585863285</Timestamp><Current dt:dt=r8>0</Current><DateUtc dt:dt=string>2011-08-10T19:41:00Z</DateUtc></FrequencyChange></FrequencyChanges></Clock>\n,8/10/2011 15:41,1,85.043,3,1,-654082091,8/10/2011,15:41:01,7:41:01 PM,male,1,$6.84 ,7,RunProc,1,1,1,RunList,16,Yellow,1,1,16,5,ExpBlockProc,1768,BlockList,Exp,1,$5.80 ,11,42,10,10,265145,TrialProc,0,257220,256708,{SPACE},512,257220,0,NA,0,258476,25,258376,{SPACE},76,258452,1768,512,258477,6478,{SPACE},TrialList,inflating,16,1,16,16,$0.41 ,1,25,25,PumpIncrementProc,NA,368,209,327,208,241,240,326,400,400,414,424,479,414,640,1374,NA,NA,NA,NA,NA,NA,NA,NA,NA,NA,NA,NA,NA,NA,NA,NA,NA,NA,NA,NA,NA,NA,NA,NA,NA,NA,NA,0,265124,263749,{SPACE},1374,265123,1,14,14,14,PumpIncrement,inflating,$0.41 ,NA,NA,NA,NA,NA,NA,NA,NA,NA,NA,NA,NA,NA,NA,NA,NA,NA,NA,NA,NA,NA,NA,NA,NA,NA,NA,NA,NA,NA,NA
BART_PRSK,10156,1,18,<?xml version=1.0?>\n<Clock xmlns:dt=urn:schemas-microsoft-com:datatypes><Description dt:dt=string>E-Prime Primary Realtime Clock</Description><StartTime><Timestamp dt:dt=int>0</Timestamp><DateUtc dt:dt=string>2011-08-10T19:41:00Z</DateUtc></StartTime><FrequencyChanges><FrequencyChange><Frequency dt:dt=r8>2992630000</Frequency><Timestamp dt:dt=r8>32743585863285</Timestamp><Current dt:dt=r8>0</Current><DateUtc dt:dt=string>2011-08-10T19:41:00Z</DateUtc></FrequencyChange></FrequencyChanges></Clock>\n,8/10/2011 15:41,1,85.043,3,1,-654082091,8/10/2011,15:41:01,7:41:01 PM,male,1,$6.84 ,7,RunProc,1,1,1,RunList,17,Yellow,1,1,17,5,ExpBlockProc,3010,BlockList,Exp,1,$6.36 ,19,66,21,21,277506,TrialProc,0,269164,268779,{SPACE},384,269163,0,NA,0,271789,26,271689,{SPACE},98,271787,3010,384,271790,5506,{SPACE},TrialList,timeout,17,1,17,17,$0.56 ,1,31,31,PumpIncrementProc,NA,NA,NA,NA,NA,NA,NA,NA,NA,NA,NA,NA,549,348,366,422,412,507,532,860,604,628,NA,NA,NA,NA,NA,NA,NA,NA,NA,NA,NA,NA,NA,NA,NA,NA,NA,NA,NA,NA,NA,1,277475,277197,,0,0,1,15,15,278,PumpIncrement,Timeout,$0.56 ,NA,NA,NA,NA,NA,NA,NA,NA,NA,NA,NA,NA,NA,NA,NA,NA,NA,NA,NA,NA,NA,NA,NA,NA,NA,NA,NA,NA,NA,NA
BART_PRSK,10156,1,18,<?xml version=1.0?>\n<Clock xmlns:dt=urn:schemas-microsoft-com:datatypes><Description dt:dt=string>E-Prime Primary Realtime Clock</Description><StartTime><Timestamp dt:dt=int>0</Timestamp><DateUtc dt:dt=string>2011-08-10T19:41:00Z</DateUtc></StartTime><FrequencyChanges><FrequencyChange><Frequency dt:dt=r8>2992630000</Frequency><Timestamp dt:dt=r8>32743585863285</Timestamp><Current dt:dt=r8>0</Current><DateUtc dt:dt=string>2011-08-10T19:41:00Z</DateUtc></FrequencyChange></FrequencyChanges></Clock>\n,8/10/2011 15:41,1,85.043,3,1,-654082091,8/10/2011,15:41:01,7:41:01 PM,male,1,$6.84 ,7,RunProc,1,1,1,RunList,18,Yellow,1,1,18,6,ExpBlockProc,3010,BlockList,Exp,1,$6.36 ,4,21,21,21,284459,TrialProc,0,281843,281409,{SPACE},434,281843,1,NA,0,284432,28,284332,,0,0,NA,434,NA,5456,{SPACE},TrialList,popped,18,1,18,18,$0.00 ,NA,NA,NA,,NA,NA,NA,NA,NA,NA,NA,NA,NA,NA,NA,NA,NA,NA,NA,NA,NA,NA,NA,NA,NA,NA,NA,NA,NA,NA,NA,NA,NA,NA,NA,NA,NA,NA,NA,NA,NA,NA,NA,NA,NA,NA,NA,NA,NA,NA,,NA,NA,NA,NA,NA,NA,,,,NA,NA,NA,NA,NA,NA,NA,NA,NA,NA,NA,NA,NA,NA,NA,NA,NA,NA,NA,NA,NA,NA,NA,NA,NA,NA,NA,NA,NA,NA
BART_PRSK,10156,1,18,<?xml version=1.0?>\n<Clock xmlns:dt=urn:schemas-microsoft-com:datatypes><Description dt:dt=string>E-Prime Primary Realtime Clock</Description><StartTime><Timestamp dt:dt=int>0</Timestamp><DateUtc dt:dt=string>2011-08-10T19:41:00Z</DateUtc></StartTime><FrequencyChanges><FrequencyChange><Frequency dt:dt=r8>2992630000</Frequency><Timestamp dt:dt=r8>32743585863285</Timestamp><Current dt:dt=r8>0</Current><DateUtc dt:dt=string>2011-08-10T19:41:00Z</DateUtc></FrequencyChange></FrequencyChanges></Clock>\n,8/10/2011 15:41,1,85.043,3,1,-654082091,8/10/2011,15:41:01,7:41:01 PM,male,1,$6.84 ,7,RunProc,1,1,1,RunList,19,Yellow,1,1,19,6,ExpBlockProc,2692,BlockList,Exp,1,$6.84 ,20,69,18,18,296567,TrialProc,0,288331,287910,{SPACE},421,288331,0,NA,0,290602,28,290502,{SPACE},13,290515,2692,421,290603,5769,{SPACE},TrialList,timeout,19,1,19,19,$0.48 ,1,28,28,PumpIncrementProc,NA,NA,NA,NA,NA,NA,NA,NA,NA,504,227,918,208,540,270,476,532,765,767,NA,NA,NA,NA,NA,NA,NA,NA,NA,NA,NA,NA,NA,NA,NA,NA,NA,NA,NA,NA,NA,NA,NA,NA,1,296529,295967,,0,0,1,16,16,562,PumpIncrement,Timeout,$0.48 ,NA,NA,NA,NA,NA,NA,NA,NA,NA,NA,NA,NA,NA,NA,NA,NA,NA,NA,NA,NA,NA,NA,NA,NA,NA,NA,NA,NA,NA,NA
BART_PRSK,10156,1,18,<?xml version=1.0?>\n<Clock xmlns:dt=urn:schemas-microsoft-com:datatypes><Description dt:dt=string>E-Prime Primary Realtime Clock</Description><StartTime><Timestamp dt:dt=int>0</Timestamp><DateUtc dt:dt=string>2011-08-10T19:41:00Z</DateUtc></StartTime><FrequencyChanges><FrequencyChange><Frequency dt:dt=r8>2992630000</Frequency><Timestamp dt:dt=r8>32743585863285</Timestamp><Current dt:dt=r8>0</Current><DateUtc dt:dt=string>2011-08-10T19:41:00Z</DateUtc></FrequencyChange></FrequencyChanges></Clock>\n,8/10/2011 15:41,1,85.043,3,1,-654082091,8/10/2011,15:41:01,7:41:01 PM,male,1,$6.84 ,7,RunProc,1,1,1,RunList,20,Yellow,1,1,20,7,ExpBlockProc,2534,BlockList,Exp,1,$6.84 ,3,18,17,17,303164,TrialProc,0,300539,300128,{SPACE},411,300539,0,NA,0,302662,25,302562,{SPACE},73,302635,2534,411,302663,5879,{SPACE},TrialList,popped,20,1,20,20,$0.00 ,1,18,18,PumpIncrementProc,NA,NA,NA,NA,NA,NA,NA,NA,460,NA,NA,NA,NA,NA,NA,NA,NA,NA,NA,NA,NA,NA,NA,NA,NA,NA,NA,NA,NA,NA,NA,NA,NA,NA,NA,NA,NA,NA,NA,NA,NA,NA,NA,0,303131,302671,{SPACE},460,303131,1,17,17,5419,PumpIncrement,popped,$0.00 ,NA,NA,NA,NA,NA,NA,NA,NA,NA,NA,NA,NA,NA,NA,NA,NA,NA,NA,NA,NA,NA,NA,NA,NA,NA,NA,NA,NA,NA,NA
BART_PRSK,10181,1,18,<?xml version=1.0?>\n<Clock xmlns:dt=urn:schemas-microsoft-com:datatypes><Description dt:dt=string>E-Prime Primary Realtime Clock</Description><StartTime><Timestamp dt:dt=int>0</Timestamp><DateUtc dt:dt=string>2012-10-19T17:40:43Z</DateUtc></StartTime><FrequencyChanges><FrequencyChange><Frequency dt:dt=r8>2992670000</Frequency><Timestamp dt:dt=r8>76937185731390</Timestamp><Current dt:dt=r8>0</Current><DateUtc dt:dt=string>2012-10-19T17:40:43Z</DateUtc></FrequencyChange></FrequencyChanges></Clock>\n,10/19/2012 13:40,1,85.011,3,1,1665971832,10/19/2012,13:40:43,5:40:43 PM,male,1,$8.06 ,10,RunProc,1,1,1,RunList,1,Yellow,1,1,1,1,ExpBlockProc,0,BlockList,Exp,1,$0.00 ,9,36,36,36,62818,TrialProc,0,58439,56455,{SPACE},1984,58439,1,NA,0,62813,30,62713,,0,0,NA,1984,NA,2406,{SPACE},TrialList,popped,1,1,1,1,$0.00 ,NA,NA,NA,,NA,NA,NA,NA,NA,NA,NA,NA,NA,NA,NA,NA,NA,NA,NA,NA,NA,NA,NA,NA,NA,NA,NA,NA,NA,NA,NA,NA,NA,NA,NA,NA,NA,NA,NA,NA,NA,NA,NA,NA,NA,NA,NA,NA,NA,NA,,NA,NA,NA,NA,NA,NA,,,,NA,NA,NA,NA,NA,NA,NA,NA,NA,NA,NA,NA,NA,NA,NA,NA,NA,NA,NA,NA,NA,NA,NA,NA,NA,NA,NA,NA,NA,NA
BART_PRSK,10181,1,18,<?xml version=1.0?>\n<Clock xmlns:dt=urn:schemas-microsoft-com:datatypes><Description dt:dt=string>E-Prime Primary Realtime Clock</Description><StartTime><Timestamp dt:dt=int>0</Timestamp><DateUtc dt:dt=string>2012-10-19T17:40:43Z</DateUtc></StartTime><FrequencyChanges><FrequencyChange><Frequency dt:dt=r8>2992670000</Frequency><Timestamp dt:dt=r8>76937185731390</Timestamp><Current dt:dt=r8>0</Current><DateUtc dt:dt=string>2012-10-19T17:40:43Z</DateUtc></FrequencyChange></FrequencyChanges></Clock>\n,10/19/2012 13:40,1,85.011,3,1,1665971832,10/19/2012,13:40:43,5:40:43 PM,male,1,$8.06 ,10,RunProc,1,1,1,RunList,2,Yellow,1,1,2,1,ExpBlockProc,3970,BlockList,Exp,1,$0.46 ,7,30,27,27,75840,TrialProc,0,67959,67265,{SPACE},694,67959,0,NA,0,71235,29,71135,{SPACE},56,71191,3970,694,71235,4596,{SPACE},TrialList,timeout,2,1,2,2,$0.46 ,1,27,27,PumpIncrementProc,NA,NA,NA,NA,NA,NA,NA,NA,NA,NA,NA,NA,NA,NA,NA,NA,NA,NA,NA,NA,NA,NA,NA,NA,NA,NA,NA,NA,NA,NA,NA,NA,NA,NA,NA,NA,NA,NA,NA,NA,NA,NA,NA,1,75837,71241,,0,0,1,1,1,4596,PumpIncrement,Timeout,$0.46 ,NA,NA,NA,NA,NA,NA,NA,NA,NA,NA,NA,NA,NA,NA,NA,NA,NA,NA,NA,NA,NA,NA,NA,NA,NA,NA,NA,NA,NA,NA
BART_PRSK,10181,1,18,<?xml version=1.0?>\n<Clock xmlns:dt=urn:schemas-microsoft-com:datatypes><Description dt:dt=string>E-Prime Primary Realtime Clock</Description><StartTime><Timestamp dt:dt=int>0</Timestamp><DateUtc dt:dt=string>2012-10-19T17:40:43Z</DateUtc></StartTime><FrequencyChanges><FrequencyChange><Frequency dt:dt=r8>2992670000</Frequency><Timestamp dt:dt=r8>76937185731390</Timestamp><Current dt:dt=r8>0</Current><DateUtc dt:dt=string>2012-10-19T17:40:43Z</DateUtc></FrequencyChange></FrequencyChanges></Clock>\n,10/19/2012 13:40,1,85.011,3,1,1665971832,10/19/2012,13:40:43,5:40:43 PM,male,1,$8.06 ,10,RunProc,1,1,1,RunList,3,Yellow,1,1,3,1,ExpBlockProc,5076,BlockList,Exp,1,$1.12 ,11,42,35,35,88639,TrialProc,0,80335,79675,{SPACE},660,80335,0,NA,0,84751,29,84651,{SPACE},11,84662,5076,660,84752,3830,{SPACE},TrialList,timeout,3,1,3,3,$0.66 ,1,35,35,PumpIncrementProc,NA,NA,NA,NA,NA,NA,NA,NA,NA,NA,NA,NA,NA,NA,NA,NA,NA,NA,NA,NA,NA,NA,NA,NA,NA,NA,NA,NA,NA,NA,NA,NA,NA,NA,NA,NA,NA,NA,NA,NA,NA,NA,NA,1,88599,84769,,0,0,1,2,2,3830,PumpIncrement,Timeout,$0.66 ,NA,NA,NA,NA,NA,NA,NA,NA,NA,NA,NA,NA,NA,NA,NA,NA,NA,NA,NA,NA,NA,NA,NA,NA,NA,NA,NA,NA,NA,NA
BART_PRSK,10181,1,18,<?xml version=1.0?>\n<Clock xmlns:dt=urn:schemas-microsoft-com:datatypes><Description dt:dt=string>E-Prime Primary Realtime Clock</Description><StartTime><Timestamp dt:dt=int>0</Timestamp><DateUtc dt:dt=string>2012-10-19T17:40:43Z</DateUtc></StartTime><FrequencyChanges><FrequencyChange><Frequency dt:dt=r8>2992670000</Frequency><Timestamp dt:dt=r8>76937185731390</Timestamp><Current dt:dt=r8>0</Current><DateUtc dt:dt=string>2012-10-19T17:40:43Z</DateUtc></FrequencyChange></FrequencyChanges></Clock>\n,10/19/2012 13:40,1,85.011,3,1,1665971832,10/19/2012,13:40:43,5:40:43 PM,male,1,$8.06 ,10,RunProc,1,1,1,RunList,4,Yellow,1,1,4,2,ExpBlockProc,5076,BlockList,Exp,1,$1.12 ,4,21,21,21,95261,TrialProc,0,92654,92274,{SPACE},380,92654,1,NA,0,95244,18,95144,,0,0,NA,380,NA,5510,{SPACE},TrialList,popped,4,1,4,4,$0.00 ,NA,NA,NA,,NA,NA,NA,NA,NA,NA,NA,NA,NA,NA,NA,NA,NA,NA,NA,NA,NA,NA,NA,NA,NA,NA,NA,NA,NA,NA,NA,NA,NA,NA,NA,NA,NA,NA,NA,NA,NA,NA,NA,NA,NA,NA,NA,NA,NA,NA,,NA,NA,NA,NA,NA,NA,,,,NA,NA,NA,NA,NA,NA,NA,NA,NA,NA,NA,NA,NA,NA,NA,NA,NA,NA,NA,NA,NA,NA,NA,NA,NA,NA,NA,NA,NA,NA
BART_PRSK,10181,1,18,<?xml version=1.0?>\n<Clock xmlns:dt=urn:schemas-microsoft-com:datatypes><Description dt:dt=string>E-Prime Primary Realtime Clock</Description><StartTime><Timestamp dt:dt=int>0</Timestamp><DateUtc dt:dt=string>2012-10-19T17:40:43Z</DateUtc></StartTime><FrequencyChanges><FrequencyChange><Frequency dt:dt=r8>2992670000</Frequency><Timestamp dt:dt=r8>76937185731390</Timestamp><Current dt:dt=r8>0</Current><DateUtc dt:dt=string>2012-10-19T17:40:43Z</DateUtc></FrequencyChange></FrequencyChanges></Clock>\n,10/19/2012 13:40,1,85.011,3,1,1665971832,10/19/2012,13:40:43,5:40:43 PM,male,1,$8.06 ,10,RunProc,1,1,1,RunList,5,Yellow,1,1,5,2,ExpBlockProc,6182,BlockList,Exp,1,$2.12 ,13,48,46,46,107836,TrialProc,0,99374,98790,{SPACE},584,99374,0,NA,0,104972,30,104872,{SPACE},94,104966,6182,584,104972,2806,{SPACE},TrialList,timeout,5,1,5,5,$1.00 ,1,46,46,PumpIncrementProc,NA,NA,NA,NA,NA,NA,NA,NA,NA,NA,NA,NA,NA,NA,NA,NA,NA,NA,NA,NA,NA,NA,NA,NA,NA,NA,NA,NA,NA,NA,NA,NA,NA,NA,NA,NA,NA,NA,NA,NA,NA,NA,NA,1,107784,104978,,0,0,1,3,3,2806,PumpIncrement,Timeout,$1.00 ,NA,NA,NA,NA,NA,NA,NA,NA,NA,NA,NA,NA,NA,NA,NA,NA,NA,NA,NA,NA,NA,NA,NA,NA,NA,NA,NA,NA,NA,NA
BART_PRSK,10181,1,18,<?xml version=1.0?>\n<Clock xmlns:dt=urn:schemas-microsoft-com:datatypes><Description dt:dt=string>E-Prime Primary Realtime Clock</Description><StartTime><Timestamp dt:dt=int>0</Timestamp><DateUtc dt:dt=string>2012-10-19T17:40:43Z</DateUtc></StartTime><FrequencyChanges><FrequencyChange><Frequency dt:dt=r8>2992670000</Frequency><Timestamp dt:dt=r8>76937185731390</Timestamp><Current dt:dt=r8>0</Current><DateUtc dt:dt=string>2012-10-19T17:40:43Z</DateUtc></FrequencyChange></FrequencyChanges></Clock>\n,10/19/2012 13:40,1,85.011,3,1,1665971832,10/19/2012,13:40:43,5:40:43 PM,male,1,$8.06 ,10,RunProc,1,1,1,RunList,6,Yellow,1,1,6,2,ExpBlockProc,4711,BlockList,Exp,1,$2.68 ,14,51,31,31,120470,TrialProc,0,112374,111589,{SPACE},785,112374,0,NA,0,116300,30,116200,{SPACE},86,116286,4711,785,116301,4105,{SPACE},TrialList,timeout,6,1,6,6,$0.56 ,1,31,31,PumpIncrementProc,NA,NA,NA,NA,NA,NA,NA,NA,NA,NA,NA,NA,NA,NA,NA,NA,NA,NA,NA,NA,NA,NA,NA,NA,NA,NA,NA,NA,NA,NA,NA,NA,NA,NA,NA,NA,NA,NA,NA,NA,NA,NA,NA,1,120422,116317,,0,0,1,4,4,4105,PumpIncrement,Timeout,$0.56 ,NA,NA,NA,NA,NA,NA,NA,NA,NA,NA,NA,NA,NA,NA,NA,NA,NA,NA,NA,NA,NA,NA,NA,NA,NA,NA,NA,NA,NA,NA
BART_PRSK,10181,1,18,<?xml version=1.0?>\n<Clock xmlns:dt=urn:schemas-microsoft-com:datatypes><Description dt:dt=string>E-Prime Primary Realtime Clock</Description><StartTime><Timestamp dt:dt=int>0</Timestamp><DateUtc dt:dt=string>2012-10-19T17:40:43Z</DateUtc></StartTime><FrequencyChanges><FrequencyChange><Frequency dt:dt=r8>2992670000</Frequency><Timestamp dt:dt=r8>76937185731390</Timestamp><Current dt:dt=r8>0</Current><DateUtc dt:dt=string>2012-10-19T17:40:43Z</DateUtc></FrequencyChange></FrequencyChanges></Clock>\n,10/19/2012 13:40,1,85.011,3,1,1665971832,10/19/2012,13:40:43,5:40:43 PM,male,1,$8.06 ,10,RunProc,1,1,1,RunList,7,Yellow,1,1,7,2,ExpBlockProc,5382,BlockList,Exp,1,$3.52 ,19,66,41,41,132856,TrialProc,0,124286,123916,{SPACE},370,124286,0,NA,0,129298,18,129198,{SPACE},7,129205,5382,370,129298,3520,{SPACE},TrialList,timeout,7,1,7,7,$0.84 ,1,41,41,PumpIncrementProc,NA,NA,NA,NA,NA,NA,NA,NA,NA,NA,NA,NA,NA,NA,NA,NA,NA,NA,NA,NA,NA,NA,NA,NA,NA,NA,NA,NA,NA,NA,NA,NA,NA,NA,NA,NA,NA,NA,NA,NA,NA,NA,NA,1,132824,129304,,0,0,1,5,5,3520,PumpIncrement,Timeout,$0.84 ,NA,NA,NA,NA,NA,NA,NA,NA,NA,NA,NA,NA,NA,NA,NA,NA,NA,NA,NA,NA,NA,NA,NA,NA,NA,NA,NA,NA,NA,NA
BART_PRSK,10181,1,18,<?xml version=1.0?>\n<Clock xmlns:dt=urn:schemas-microsoft-com:datatypes><Description dt:dt=string>E-Prime Primary Realtime Clock</Description><StartTime><Timestamp dt:dt=int>0</Timestamp><DateUtc dt:dt=string>2012-10-19T17:40:43Z</DateUtc></StartTime><FrequencyChanges><FrequencyChange><Frequency dt:dt=r8>2992670000</Frequency><Timestamp dt:dt=r8>76937185731390</Timestamp><Current dt:dt=r8>0</Current><DateUtc dt:dt=string>2012-10-19T17:40:43Z</DateUtc></FrequencyChange></FrequencyChanges></Clock>\n,10/19/2012 13:40,1,85.011,3,1,1665971832,10/19/2012,13:40:43,5:40:43 PM,male,1,$8.06 ,10,RunProc,1,1,1,RunList,8,Yellow,1,1,8,3,ExpBlockProc,5382,BlockList,Exp,1,$3.52 ,5,24,24,24,141785,TrialProc,0,138749,136750,{SPACE},1999,138749,1,NA,0,141755,29,141655,,0,0,NA,1999,NA,3591,{SPACE},TrialList,popped,8,1,8,8,$0.00 ,NA,NA,NA,,NA,NA,NA,NA,NA,NA,NA,NA,NA,NA,NA,NA,NA,NA,NA,NA,NA,NA,NA,NA,NA,NA,NA,NA,NA,NA,NA,NA,NA,NA,NA,NA,NA,NA,NA,NA,NA,NA,NA,NA,NA,NA,NA,NA,NA,NA,,NA,NA,NA,NA,NA,NA,,,,NA,NA,NA,NA,NA,NA,NA,NA,NA,NA,NA,NA,NA,NA,NA,NA,NA,NA,NA,NA,NA,NA,NA,NA,NA,NA,NA,NA,NA,NA
BART_PRSK,10181,1,18,<?xml version=1.0?>\n<Clock xmlns:dt=urn:schemas-microsoft-com:datatypes><Description dt:dt=string>E-Prime Primary Realtime Clock</Description><StartTime><Timestamp dt:dt=int>0</Timestamp><DateUtc dt:dt=string>2012-10-19T17:40:43Z</DateUtc></StartTime><FrequencyChanges><FrequencyChange><Frequency dt:dt=r8>2992670000</Frequency><Timestamp dt:dt=r8>76937185731390</Timestamp><Current dt:dt=r8>0</Current><DateUtc dt:dt=string>2012-10-19T17:40:43Z</DateUtc></FrequencyChange></FrequencyChanges></Clock>\n,10/19/2012 13:40,1,85.011,3,1,1665971832,10/19/2012,13:40:43,5:40:43 PM,male,1,$8.06 ,10,RunProc,1,1,1,RunList,9,Yellow,1,1,9,3,ExpBlockProc,6817,BlockList,Exp,1,$4.73 ,18,63,52,52,154536,TrialProc,0,145837,145349,{SPACE},488,145837,0,NA,0,152166,18,152066,{SPACE},18,152084,6817,488,152166,2302,{SPACE},TrialList,timeout,9,1,9,9,$1.21 ,1,52,52,PumpIncrementProc,NA,NA,NA,NA,NA,NA,NA,NA,NA,NA,NA,NA,NA,NA,NA,NA,NA,NA,NA,NA,NA,NA,NA,NA,NA,NA,NA,NA,NA,NA,NA,NA,NA,NA,NA,NA,NA,NA,NA,NA,NA,NA,NA,1,154485,152183,,0,0,1,6,6,2302,PumpIncrement,Timeout,$1.21 ,NA,NA,NA,NA,NA,NA,NA,NA,NA,NA,NA,NA,NA,NA,NA,NA,NA,NA,NA,NA,NA,NA,NA,NA,NA,NA,NA,NA,NA,NA
BART_PRSK,10181,1,18,<?xml version=1.0?>\n<Clock xmlns:dt=urn:schemas-microsoft-com:datatypes><Description dt:dt=string>E-Prime Primary Realtime Clock</Description><StartTime><Timestamp dt:dt=int>0</Timestamp><DateUtc dt:dt=string>2012-10-19T17:40:43Z</DateUtc></StartTime><FrequencyChanges><FrequencyChange><Frequency dt:dt=r8>2992670000</Frequency><Timestamp dt:dt=r8>76937185731390</Timestamp><Current dt:dt=r8>0</Current><DateUtc dt:dt=string>2012-10-19T17:40:43Z</DateUtc></FrequencyChange></FrequencyChanges></Clock>\n,10/19/2012 13:40,1,85.011,3,1,1665971832,10/19/2012,13:40:43,5:40:43 PM,male,1,$8.06 ,10,RunProc,1,1,1,RunList,10,Yellow,1,1,10,3,ExpBlockProc,5147,BlockList,Exp,1,$5.40 ,10,39,35,35,167464,TrialProc,0,158644,158206,{SPACE},438,158644,0,NA,0,163353,30,163253,{SPACE},63,163316,5147,438,163354,4052,{SPACE},TrialList,timeout,10,1,10,10,$0.66 ,1,35,35,PumpIncrementProc,NA,NA,NA,NA,NA,NA,NA,NA,NA,NA,NA,NA,NA,NA,NA,NA,NA,NA,NA,NA,NA,NA,NA,NA,NA,NA,NA,NA,NA,NA,NA,NA,NA,NA,NA,NA,NA,NA,NA,NA,NA,NA,NA,1,167422,163370,,0,0,1,7,7,4052,PumpIncrement,Timeout,$0.66 ,NA,NA,NA,NA,NA,NA,NA,NA,NA,NA,NA,NA,NA,NA,NA,NA,NA,NA,NA,NA,NA,NA,NA,NA,NA,NA,NA,NA,NA,NA
BART_PRSK,10181,1,18,<?xml version=1.0?>\n<Clock xmlns:dt=urn:schemas-microsoft-com:datatypes><Description dt:dt=string>E-Prime Primary Realtime Clock</Description><StartTime><Timestamp dt:dt=int>0</Timestamp><DateUtc dt:dt=string>2012-10-19T17:40:43Z</DateUtc></StartTime><FrequencyChanges><FrequencyChange><Frequency dt:dt=r8>2992670000</Frequency><Timestamp dt:dt=r8>76937185731390</Timestamp><Current dt:dt=r8>0</Current><DateUtc dt:dt=string>2012-10-19T17:40:43Z</DateUtc></FrequencyChange></FrequencyChanges></Clock>\n,10/19/2012 13:40,1,85.011,3,1,1665971832,10/19/2012,13:40:43,5:40:43 PM,male,1,$8.06 ,10,RunProc,1,1,1,RunList,11,Yellow,1,1,11,4,ExpBlockProc,5147,BlockList,Exp,1,$5.40 ,2,15,15,15,173510,TrialProc,0,171436,171099,{SPACE},337,171436,1,NA,0,173469,29,173369,,0,0,NA,337,NA,6153,{SPACE},TrialList,popped,11,1,11,11,$0.00 ,NA,NA,NA,,NA,NA,NA,NA,NA,NA,NA,NA,NA,NA,NA,NA,NA,NA,NA,NA,NA,NA,NA,NA,NA,NA,NA,NA,NA,NA,NA,NA,NA,NA,NA,NA,NA,NA,NA,NA,NA,NA,NA,NA,NA,NA,NA,NA,NA,NA,,NA,NA,NA,NA,NA,NA,,,,NA,NA,NA,NA,NA,NA,NA,NA,NA,NA,NA,NA,NA,NA,NA,NA,NA,NA,NA,NA,NA,NA,NA,NA,NA,NA,NA,NA,NA,NA
BART_PRSK,10181,1,18,<?xml version=1.0?>\n<Clock xmlns:dt=urn:schemas-microsoft-com:datatypes><Description dt:dt=string>E-Prime Primary Realtime Clock</Description><StartTime><Timestamp dt:dt=int>0</Timestamp><DateUtc dt:dt=string>2012-10-19T17:40:43Z</DateUtc></StartTime><FrequencyChanges><FrequencyChange><Frequency dt:dt=r8>2992670000</Frequency><Timestamp dt:dt=r8>76937185731390</Timestamp><Current dt:dt=r8>0</Current><DateUtc dt:dt=string>2012-10-19T17:40:43Z</DateUtc></FrequencyChange></FrequencyChanges></Clock>\n,10/19/2012 13:40,1,85.011,3,1,1665971832,10/19/2012,13:40:43,5:40:43 PM,male,1,$8.06 ,10,RunProc,1,1,1,RunList,12,Yellow,1,1,12,4,ExpBlockProc,9393,BlockList,Exp,1,$7.16 ,20,69,66,66,187414,TrialProc,0,177508,177039,{SPACE},469,177508,0,NA,0,186432,41,186332,{SPACE},8,186340,9393,469,186433,921,{SPACE},TrialList,timeout,12,1,12,12,$1.77 ,1,66,66,PumpIncrementProc,NA,NA,NA,NA,NA,NA,NA,NA,NA,NA,NA,NA,NA,NA,NA,NA,NA,NA,NA,NA,NA,NA,NA,NA,NA,NA,NA,NA,NA,NA,NA,NA,NA,NA,NA,NA,NA,NA,NA,NA,NA,NA,NA,1,187371,186450,,0,0,1,8,8,921,PumpIncrement,Timeout,$1.77 ,NA,NA,NA,NA,NA,NA,NA,NA,NA,NA,NA,NA,NA,NA,NA,NA,NA,NA,NA,NA,NA,NA,NA,NA,NA,NA,NA,NA,NA,NA
BART_PRSK,10181,1,18,<?xml version=1.0?>\n<Clock xmlns:dt=urn:schemas-microsoft-com:datatypes><Description dt:dt=string>E-Prime Primary Realtime Clock</Description><StartTime><Timestamp dt:dt=int>0</Timestamp><DateUtc dt:dt=string>2012-10-19T17:40:43Z</DateUtc></StartTime><FrequencyChanges><FrequencyChange><Frequency dt:dt=r8>2992670000</Frequency><Timestamp dt:dt=r8>76937185731390</Timestamp><Current dt:dt=r8>0</Current><DateUtc dt:dt=string>2012-10-19T17:40:43Z</DateUtc></FrequencyChange></FrequencyChanges></Clock>\n,10/19/2012 13:40,1,85.011,3,1,1665971832,10/19/2012,13:40:43,5:40:43 PM,male,1,$8.06 ,10,RunProc,1,1,1,RunList,13,Yellow,1,1,13,5,ExpBlockProc,9393,BlockList,Exp,1,$7.16 ,6,27,27,27,195613,TrialProc,0,192299,191355,{SPACE},944,192299,1,NA,0,195595,29,195495,,0,0,NA,944,NA,4346,{SPACE},TrialList,popped,13,1,13,13,$0.00 ,NA,NA,NA,,NA,NA,NA,NA,NA,NA,NA,NA,NA,NA,NA,NA,NA,NA,NA,NA,NA,NA,NA,NA,NA,NA,NA,NA,NA,NA,NA,NA,NA,NA,NA,NA,NA,NA,NA,NA,NA,NA,NA,NA,NA,NA,NA,NA,NA,NA,,NA,NA,NA,NA,NA,NA,,,,NA,NA,NA,NA,NA,NA,NA,NA,NA,NA,NA,NA,NA,NA,NA,NA,NA,NA,NA,NA,NA,NA,NA,NA,NA,NA,NA,NA,NA,NA
BART_PRSK,10181,1,18,<?xml version=1.0?>\n<Clock xmlns:dt=urn:schemas-microsoft-com:datatypes><Description dt:dt=string>E-Prime Primary Realtime Clock</Description><StartTime><Timestamp dt:dt=int>0</Timestamp><DateUtc dt:dt=string>2012-10-19T17:40:43Z</DateUtc></StartTime><FrequencyChanges><FrequencyChange><Frequency dt:dt=r8>2992670000</Frequency><Timestamp dt:dt=r8>76937185731390</Timestamp><Current dt:dt=r8>0</Current><DateUtc dt:dt=string>2012-10-19T17:40:43Z</DateUtc></FrequencyChange></FrequencyChanges></Clock>\n,10/19/2012 13:40,1,85.011,3,1,1665971832,10/19/2012,13:40:43,5:40:43 PM,male,1,$8.06 ,10,RunProc,1,1,1,RunList,14,Yellow,1,1,14,6,ExpBlockProc,9393,BlockList,Exp,1,$7.16 ,3,18,18,18,201659,TrialProc,0,199387,199036,{SPACE},351,199387,1,NA,0,201642,30,201542,,0,0,NA,351,NA,5839,{SPACE},TrialList,popped,14,1,14,14,$0.00 ,NA,NA,NA,,NA,NA,NA,NA,NA,NA,NA,NA,NA,NA,NA,NA,NA,NA,NA,NA,NA,NA,NA,NA,NA,NA,NA,NA,NA,NA,NA,NA,NA,NA,NA,NA,NA,NA,NA,NA,NA,NA,NA,NA,NA,NA,NA,NA,NA,NA,,NA,NA,NA,NA,NA,NA,,,,NA,NA,NA,NA,NA,NA,NA,NA,NA,NA,NA,NA,NA,NA,NA,NA,NA,NA,NA,NA,NA,NA,NA,NA,NA,NA,NA,NA,NA,NA
BART_PRSK,10181,1,18,<?xml version=1.0?>\n<Clock xmlns:dt=urn:schemas-microsoft-com:datatypes><Description dt:dt=string>E-Prime Primary Realtime Clock</Description><StartTime><Timestamp dt:dt=int>0</Timestamp><DateUtc dt:dt=string>2012-10-19T17:40:43Z</DateUtc></StartTime><FrequencyChanges><FrequencyChange><Frequency dt:dt=r8>2992670000</Frequency><Timestamp dt:dt=r8>76937185731390</Timestamp><Current dt:dt=r8>0</Current><DateUtc dt:dt=string>2012-10-19T17:40:43Z</DateUtc></FrequencyChange></FrequencyChanges></Clock>\n,10/19/2012 13:40,1,85.011,3,1,1665971832,10/19/2012,13:40:43,5:40:43 PM,male,1,$8.06 ,10,RunProc,1,1,1,RunList,15,Yellow,1,1,15,6,ExpBlockProc,2523,BlockList,Exp,1,$7.45 ,17,60,18,18,213340,TrialProc,0,205299,204977,{SPACE},322,205299,0,NA,0,207500,30,207400,{SPACE},43,207443,2523,322,207500,5868,{SPACE},TrialList,inflating,15,1,15,15,$0.28 ,1,19,19,PumpIncrementProc,NA,NA,NA,NA,NA,NA,NA,NA,NA,5806,NA,NA,NA,NA,NA,NA,NA,NA,NA,NA,NA,NA,NA,NA,NA,NA,NA,NA,NA,NA,NA,NA,NA,NA,NA,NA,NA,NA,NA,NA,NA,NA,NA,0,213323,207517,{SPACE},5806,213323,1,9,9,62,PumpIncrement,inflating,$0.28 ,NA,NA,NA,NA,NA,NA,NA,NA,NA,NA,NA,NA,NA,NA,NA,NA,NA,NA,NA,NA,NA,NA,NA,NA,NA,NA,NA,NA,NA,NA
BART_PRSK,10181,1,18,<?xml version=1.0?>\n<Clock xmlns:dt=urn:schemas-microsoft-com:datatypes><Description dt:dt=string>E-Prime Primary Realtime Clock</Description><StartTime><Timestamp dt:dt=int>0</Timestamp><DateUtc dt:dt=string>2012-10-19T17:40:43Z</DateUtc></StartTime><FrequencyChanges><FrequencyChange><Frequency dt:dt=r8>2992670000</Frequency><Timestamp dt:dt=r8>76937185731390</Timestamp><Current dt:dt=r8>0</Current><DateUtc dt:dt=string>2012-10-19T17:40:43Z</DateUtc></FrequencyChange></FrequencyChanges></Clock>\n,10/19/2012 13:40,1,85.011,3,1,1665971832,10/19/2012,13:40:43,5:40:43 PM,male,1,$8.06 ,10,RunProc,1,1,1,RunList,16,Yellow,1,1,16,7,ExpBlockProc,2523,BlockList,Exp,1,$7.45 ,15,54,54,54,225868,TrialProc,0,218427,217281,{SPACE},1145,218426,1,NA,0,225839,42,225739,,0,0,NA,1145,NA,1445,{SPACE},TrialList,popped,16,1,16,16,$0.00 ,NA,NA,NA,,NA,NA,NA,NA,NA,NA,NA,NA,NA,NA,NA,NA,NA,NA,NA,NA,NA,NA,NA,NA,NA,NA,NA,NA,NA,NA,NA,NA,NA,NA,NA,NA,NA,NA,NA,NA,NA,NA,NA,NA,NA,NA,NA,NA,NA,NA,,NA,NA,NA,NA,NA,NA,,,,NA,NA,NA,NA,NA,NA,NA,NA,NA,NA,NA,NA,NA,NA,NA,NA,NA,NA,NA,NA,NA,NA,NA,NA,NA,NA,NA,NA,NA,NA
BART_PRSK,10181,1,18,<?xml version=1.0?>\n<Clock xmlns:dt=urn:schemas-microsoft-com:datatypes><Description dt:dt=string>E-Prime Primary Realtime Clock</Description><StartTime><Timestamp dt:dt=int>0</Timestamp><DateUtc dt:dt=string>2012-10-19T17:40:43Z</DateUtc></StartTime><FrequencyChanges><FrequencyChange><Frequency dt:dt=r8>2992670000</Frequency><Timestamp dt:dt=r8>76937185731390</Timestamp><Current dt:dt=r8>0</Current><DateUtc dt:dt=string>2012-10-19T17:40:43Z</DateUtc></FrequencyChange></FrequencyChanges></Clock>\n,10/19/2012 13:40,1,85.011,3,1,1665971832,10/19/2012,13:40:43,5:40:43 PM,male,1,$8.06 ,10,RunProc,1,1,1,RunList,17,Yellow,1,1,17,7,ExpBlockProc,4876,BlockList,Exp,1,$8.06 ,16,57,33,33,238490,TrialProc,0,229722,229291,{SPACE},431,229722,0,NA,0,234167,29,234067,{SPACE},47,234114,4876,431,234168,4259,{SPACE},TrialList,timeout,17,1,17,17,$0.61 ,1,33,33,PumpIncrementProc,NA,NA,NA,NA,NA,NA,NA,NA,NA,NA,NA,NA,NA,NA,NA,NA,NA,NA,NA,NA,NA,NA,NA,NA,NA,NA,NA,NA,NA,NA,NA,NA,NA,NA,NA,NA,NA,NA,NA,NA,NA,NA,NA,1,238444,234185,,0,0,1,10,10,4259,PumpIncrement,Timeout,$0.61 ,NA,NA,NA,NA,NA,NA,NA,NA,NA,NA,NA,NA,NA,NA,NA,NA,NA,NA,NA,NA,NA,NA,NA,NA,NA,NA,NA,NA,NA,NA
BART_PRSK,10181,1,18,<?xml version=1.0?>\n<Clock xmlns:dt=urn:schemas-microsoft-com:datatypes><Description dt:dt=string>E-Prime Primary Realtime Clock</Description><StartTime><Timestamp dt:dt=int>0</Timestamp><DateUtc dt:dt=string>2012-10-19T17:40:43Z</DateUtc></StartTime><FrequencyChanges><FrequencyChange><Frequency dt:dt=r8>2992670000</Frequency><Timestamp dt:dt=r8>76937185731390</Timestamp><Current dt:dt=r8>0</Current><DateUtc dt:dt=string>2012-10-19T17:40:43Z</DateUtc></FrequencyChange></FrequencyChanges></Clock>\n,10/19/2012 13:40,1,85.011,3,1,1665971832,10/19/2012,13:40:43,5:40:43 PM,male,1,$8.06 ,10,RunProc,1,1,1,RunList,18,Yellow,1,1,18,8,ExpBlockProc,4876,BlockList,Exp,1,$8.06 ,8,33,33,33,247242,TrialProc,0,242778,242184,{SPACE},594,242778,1,NA,0,247212,41,247112,,0,0,NA,594,NA,4096,{SPACE},TrialList,popped,18,1,18,18,$0.00 ,NA,NA,NA,,NA,NA,NA,NA,NA,NA,NA,NA,NA,NA,NA,NA,NA,NA,NA,NA,NA,NA,NA,NA,NA,NA,NA,NA,NA,NA,NA,NA,NA,NA,NA,NA,NA,NA,NA,NA,NA,NA,NA,NA,NA,NA,NA,NA,NA,NA,,NA,NA,NA,NA,NA,NA,,,,NA,NA,NA,NA,NA,NA,NA,NA,NA,NA,NA,NA,NA,NA,NA,NA,NA,NA,NA,NA,NA,NA,NA,NA,NA,NA,NA,NA,NA,NA
BART_PRSK,10181,1,18,<?xml version=1.0?>\n<Clock xmlns:dt=urn:schemas-microsoft-com:datatypes><Description dt:dt=string>E-Prime Primary Realtime Clock</Description><StartTime><Timestamp dt:dt=int>0</Timestamp><DateUtc dt:dt=string>2012-10-19T17:40:43Z</DateUtc></StartTime><FrequencyChanges><FrequencyChange><Frequency dt:dt=r8>2992670000</Frequency><Timestamp dt:dt=r8>76937185731390</Timestamp><Current dt:dt=r8>0</Current><DateUtc dt:dt=string>2012-10-19T17:40:43Z</DateUtc></FrequencyChange></FrequencyChanges></Clock>\n,10/19/2012 13:40,1,85.011,3,1,1665971832,10/19/2012,13:40:43,5:40:43 PM,male,1,$8.06 ,10,RunProc,1,1,1,RunList,19,Yellow,1,1,19,9,ExpBlockProc,4876,BlockList,Exp,1,$8.06 ,1,12,12,12,252794,TrialProc,0,251154,250724,{SPACE},429,251153,1,NA,0,252765,30,252665,,0,0,NA,429,NA,6361,{SPACE},TrialList,popped,19,1,19,19,$0.00 ,NA,NA,NA,,NA,NA,NA,NA,NA,NA,NA,NA,NA,NA,NA,NA,NA,NA,NA,NA,NA,NA,NA,NA,NA,NA,NA,NA,NA,NA,NA,NA,NA,NA,NA,NA,NA,NA,NA,NA,NA,NA,NA,NA,NA,NA,NA,NA,NA,NA,,NA,NA,NA,NA,NA,NA,,,,NA,NA,NA,NA,NA,NA,NA,NA,NA,NA,NA,NA,NA,NA,NA,NA,NA,NA,NA,NA,NA,NA,NA,NA,NA,NA,NA,NA,NA,NA
BART_PRSK,10181,1,18,<?xml version=1.0?>\n<Clock xmlns:dt=urn:schemas-microsoft-com:datatypes><Description dt:dt=string>E-Prime Primary Realtime Clock</Description><StartTime><Timestamp dt:dt=int>0</Timestamp><DateUtc dt:dt=string>2012-10-19T17:40:43Z</DateUtc></StartTime><FrequencyChanges><FrequencyChange><Frequency dt:dt=r8>2992670000</Frequency><Timestamp dt:dt=r8>76937185731390</Timestamp><Current dt:dt=r8>0</Current><DateUtc dt:dt=string>2012-10-19T17:40:43Z</DateUtc></FrequencyChange></FrequencyChanges></Clock>\n,10/19/2012 13:40,1,85.011,3,1,1665971832,10/19/2012,13:40:43,5:40:43 PM,male,1,$8.06 ,10,RunProc,1,1,1,RunList,20,Yellow,1,1,20,10,ExpBlockProc,4876,BlockList,Exp,1,$8.06 ,12,45,45,45,262722,TrialProc,0,256569,256229,{SPACE},340,256569,1,NA,0,262693,41,262593,,0,0,NA,340,NA,3150,{SPACE},TrialList,popped,20,1,20,20,$0.00 ,NA,NA,NA,,NA,NA,NA,NA,NA,NA,NA,NA,NA,NA,NA,NA,NA,NA,NA,NA,NA,NA,NA,NA,NA,NA,NA,NA,NA,NA,NA,NA,NA,NA,NA,NA,NA,NA,NA,NA,NA,NA,NA,NA,NA,NA,NA,NA,NA,NA,,NA,NA,NA,NA,NA,NA,,,,NA,NA,NA,NA,NA,NA,NA,NA,NA,NA,NA,NA,NA,NA,NA,NA,NA,NA,NA,NA,NA,NA,NA,NA,NA,NA,NA,NA,NA,NA
BART_PRSK,10300,1,15,<?xml version=1.0?>\n<Clock xmlns:dt=urn:schemas-microsoft-com:datatypes><Description dt:dt=string>E-Prime Primary Realtime Clock</Description><StartTime><Timestamp dt:dt=int>0</Timestamp><DateUtc dt:dt=string>2011-08-03T17:52:45Z</DateUtc></StartTime><FrequencyChanges><FrequencyChange><Frequency dt:dt=r8>2992650000</Frequency><Timestamp dt:dt=r8>67294632305610</Timestamp><Current dt:dt=r8>0</Current><DateUtc dt:dt=string>2011-08-03T17:52:45Z</DateUtc></FrequencyChange></FrequencyChanges></Clock>\n,8/3/2011 13:52,0,85.011,0,1,1315177972,8/3/2011,13:52:45,5:52:45 PM,male,1,$4.85 ,5,RunProc,1,1,1,RunList,1,Yellow,1,1,1,0,ExpBlockProc,3636,BlockList,Exp,1,$0.33 ,9,36,20,20,29908,TrialProc,0,22833,21551,{SPACE},1282,22833,0,NA,0,25187,17,25087,{SPACE},26,25113,3636,1282,25187,4708,{SPACE},TrialList,timeout,1,1,1,1,$0.33 ,1,21,21,PumpIncrementProc,NA,NA,NA,NA,NA,NA,NA,NA,NA,NA,NA,3907,NA,NA,NA,NA,NA,NA,NA,NA,NA,NA,NA,NA,NA,NA,NA,NA,NA,NA,NA,NA,NA,NA,NA,NA,NA,NA,NA,NA,NA,NA,NA,1,29905,29104,,0,0,1,1,1,801,PumpIncrement,Timeout,$0.33 ,NA,NA,NA,NA,NA,NA,NA,NA,NA,NA,NA,NA,NA,NA,NA,NA,NA,NA,NA,NA,NA,NA,NA,NA,NA,NA,NA,NA,NA,NA
BART_PRSK,10300,1,15,<?xml version=1.0?>\n<Clock xmlns:dt=urn:schemas-microsoft-com:datatypes><Description dt:dt=string>E-Prime Primary Realtime Clock</Description><StartTime><Timestamp dt:dt=int>0</Timestamp><DateUtc dt:dt=string>2011-08-03T17:52:45Z</DateUtc></StartTime><FrequencyChanges><FrequencyChange><Frequency dt:dt=r8>2992650000</Frequency><Timestamp dt:dt=r8>67294632305610</Timestamp><Current dt:dt=r8>0</Current><DateUtc dt:dt=string>2011-08-03T17:52:45Z</DateUtc></FrequencyChange></FrequencyChanges></Clock>\n,8/3/2011 13:52,0,85.011,0,1,1315177972,8/3/2011,13:52:45,5:52:45 PM,male,1,$4.85 ,5,RunProc,1,1,1,RunList,2,Yellow,1,1,2,1,ExpBlockProc,3636,BlockList,Exp,1,$0.33 ,4,21,21,21,39627,TrialProc,0,37081,36265,{SPACE},815,37080,1,NA,0,39625,16,39525,,0,0,NA,815,NA,5075,{SPACE},TrialList,popped,2,1,2,2,$0.00 ,NA,NA,NA,,NA,NA,NA,NA,NA,NA,NA,NA,NA,NA,NA,NA,NA,NA,NA,NA,NA,NA,NA,NA,NA,NA,NA,NA,NA,NA,NA,NA,NA,NA,NA,NA,NA,NA,NA,NA,NA,NA,NA,NA,NA,NA,NA,NA,NA,NA,,NA,NA,NA,NA,NA,NA,,,,NA,NA,NA,NA,NA,NA,NA,NA,NA,NA,NA,NA,NA,NA,NA,NA,NA,NA,NA,NA,NA,NA,NA,NA,NA,NA,NA,NA,NA,NA
BART_PRSK,10300,1,15,<?xml version=1.0?>\n<Clock xmlns:dt=urn:schemas-microsoft-com:datatypes><Description dt:dt=string>E-Prime Primary Realtime Clock</Description><StartTime><Timestamp dt:dt=int>0</Timestamp><DateUtc dt:dt=string>2011-08-03T17:52:45Z</DateUtc></StartTime><FrequencyChanges><FrequencyChange><Frequency dt:dt=r8>2992650000</Frequency><Timestamp dt:dt=r8>67294632305610</Timestamp><Current dt:dt=r8>0</Current><DateUtc dt:dt=string>2011-08-03T17:52:45Z</DateUtc></FrequencyChange></FrequencyChanges></Clock>\n,8/3/2011 13:52,0,85.011,0,1,1315177972,8/3/2011,13:52:45,5:52:45 PM,male,1,$4.85 ,5,RunProc,1,1,1,RunList,3,Yellow,1,1,3,1,ExpBlockProc,1834,BlockList,Exp,1,$0.57 ,6,27,9,9,51548,TrialProc,0,44128,43376,{SPACE},752,44128,0,NA,0,45210,16,45110,{SPACE},98,45208,1834,752,45210,6338,{SPACE},TrialList,inflating,3,1,3,3,$0.25 ,1,17,17,PumpIncrementProc,769,208,986,176,610,641,1266,1625,NA,NA,NA,NA,NA,NA,NA,NA,NA,NA,NA,NA,NA,NA,NA,NA,NA,NA,NA,NA,NA,NA,NA,NA,NA,NA,NA,NA,NA,NA,NA,NA,NA,NA,NA,0,51544,49919,{SPACE},1625,51544,1,2,2,57,PumpIncrement,inflating,$0.25 ,NA,NA,NA,NA,NA,NA,NA,NA,NA,NA,NA,NA,NA,NA,NA,NA,NA,NA,NA,NA,NA,NA,NA,NA,NA,NA,NA,NA,NA,NA
BART_PRSK,10300,1,15,<?xml version=1.0?>\n<Clock xmlns:dt=urn:schemas-microsoft-com:datatypes><Description dt:dt=string>E-Prime Primary Realtime Clock</Description><StartTime><Timestamp dt:dt=int>0</Timestamp><DateUtc dt:dt=string>2011-08-03T17:52:45Z</DateUtc></StartTime><FrequencyChanges><FrequencyChange><Frequency dt:dt=r8>2992650000</Frequency><Timestamp dt:dt=r8>67294632305610</Timestamp><Current dt:dt=r8>0</Current><DateUtc dt:dt=string>2011-08-03T17:52:45Z</DateUtc></FrequencyChange></FrequencyChanges></Clock>\n,8/3/2011 13:52,0,85.011,0,1,1315177972,8/3/2011,13:52:45,5:52:45 PM,male,1,$4.85 ,5,RunProc,1,1,1,RunList,4,Yellow,1,1,4,1,ExpBlockProc,2417,BlockList,Exp,1,$0.86 ,14,51,15,15,64205,TrialProc,0,56416,55824,{SPACE},592,56416,0,NA,0,58241,16,58141,{SPACE},3,58144,2417,592,58241,5898,{SPACE},TrialList,timeout,4,1,4,4,$0.28 ,1,19,19,PumpIncrementProc,NA,NA,NA,NA,NA,NA,927,696,1754,1505,NA,NA,NA,NA,NA,NA,NA,NA,NA,NA,NA,NA,NA,NA,NA,NA,NA,NA,NA,NA,NA,NA,NA,NA,NA,NA,NA,NA,NA,NA,NA,NA,NA,1,64174,63158,,0,0,1,3,3,1016,PumpIncrement,Timeout,$0.28 ,NA,NA,NA,NA,NA,NA,NA,NA,NA,NA,NA,NA,NA,NA,NA,NA,NA,NA,NA,NA,NA,NA,NA,NA,NA,NA,NA,NA,NA,NA
